#,,,,,,,,,,,
# Results on Tuesday December 12 2017 12:17:01 UTC.,,,,,,,,,,,
# USER AGENT: Mozilla/5.0 (Macintosh; Intel Mac OS X 10_13_1) AppleWebKit/604.3.5 (KHTML, like Gecko) Version/11.0.1 Safari/604.3.5,,,,,,,,,,
# Design number was non-random = 0,,,,,,,,,,,
#,,,,,,,,,,,
# Columns below this comment are as follows:,,,,,,,,,,,
# 1. Time results were received.,,,,,,,,,,,
# 2. MD5 hash of participant's IP address.,,,,,,,,,,,
# 3. Controller name.,,,,,,,,,,,
# 4. Item number.,,,,,,,,,,,
# 5. Element number.,,,,,,,,,,,
# 6. Type.,,,,,,,,,,,
# 7. Group.,,,,,,,,,,,
# 8. Field name.,,,,,,,,,,,
# 9. Field value.,,,,,,,,,,,
1513081021,49de413ab45774f71b0bc07c2cd5c655,Form,3,0,intro,NULL,name,1,,,
1513081021,49de413ab45774f71b0bc07c2cd5c655,Form,3,0,intro,NULL,age,1,,,
1513081021,49de413ab45774f71b0bc07c2cd5c655,Form,3,0,intro,NULL,_REACTION_TIME_,154726,,,
# The lines below this comment are in groups of 2.,,,,,,,,,,,
# The formats of the lines in each of these groups are as follows:,,,,,,,,,,,
#,,,,,,,,,,,
# Line 1:,,,,,,,,,,,
#     Col. 1: Time results were received.,,,,,,,,,,,
#     Col. 2: MD5 hash of participant's IP address.,,,,,,,,,,,
#     Col. 3: Controller name.,,,,,,,,,,,
#     Col. 4: Item number.,,,,,,,,,,,
#     Col. 5: Element number.,,,,,,,,,,,
#     Col. 6: Type.,,,,,,,,,,,
#     Col. 7: Group.,,,,,,,,,,,
#     Col. 8: Word number.,,,,,,,,,,,
#     Col. 9: Word.,,,,,,,,,,,
#     Col. 10: Reading time.,,,,,,,,,,,
#     Col. 11: Newline?,,,,,,,,,,,
#     Col. 12: Sentence (or sentence MD5).,,,,,,,,,,,
# Line 2:,,,,,,,,,,,
#     Col. 1: Time results were received.,,,,,,,,,,,
#     Col. 2: MD5 hash of participant's IP address.,,,,,,,,,,,
#     Col. 3: Controller name.,,,,,,,,,,,
#     Col. 4: Item number.,,,,,,,,,,,
#     Col. 5: Element number.,,,,,,,,,,,
#     Col. 6: Type.,,,,,,,,,,,
#     Col. 7: Group.,,,,,,,,,,,
#     Col. 8: Sentence.,,,,,,,,,,,
#     Col. 9: Chosen picture (Starting from 1).,,,,,,,,,,,
#     Col. 10: Whether or not answer was correct (NULL if N/A).,,,,,,,,,,,
#     Col. 11: Time taken to answer.,,,,,,,,,,,
1513081021,49de413ab45774f71b0bc07c2cd5c655,DashedSentence,5,0,practice,NULL,1,Someone looked at the airplane flying in the sky yesterday morning.,4423,FALSE,Someone looked at the airplane flying in the sky yesterday morning.
1513081021,49de413ab45774f71b0bc07c2cd5c655,PictureAccept,5,1,practice,NULL,Pick a picture,1,1,1976,
1513081021,49de413ab45774f71b0bc07c2cd5c655,DashedSentence,6,0,practice,NULL,1,Alice noticed that there was a puddle in front of her.,3722,FALSE,Alice noticed that there was a puddle in front of her.
1513081021,49de413ab45774f71b0bc07c2cd5c655,PictureAccept,6,1,practice,NULL,Pick a picture,2,0,1508,
1513081021,49de413ab45774f71b0bc07c2cd5c655,DashedSentence,7,0,practice,NULL,1,Two students with school uniforms were walking slowly in the classroom,4282,FALSE,Two students with school uniforms were walking slowly in the classroom
1513081021,49de413ab45774f71b0bc07c2cd5c655,PictureAccept,7,1,practice,NULL,Pick a picture,2,0,1218,
1513081021,49de413ab45774f71b0bc07c2cd5c655,DashedSentence,8,0,practice,NULL,1,There were more than one apple on the shelf.,3349,FALSE,There were more than one apple on the shelf.
1513081021,49de413ab45774f71b0bc07c2cd5c655,PictureAccept,8,1,practice,NULL,Pick a picture,2,0,1229,
1513081021,49de413ab45774f71b0bc07c2cd5c655,DashedSentence,57,0,exp1-1,13,1,After the two brothers hugged their mother at the station ate some cookies.,3455,FALSE,After the two brothers hugged their mother at the station ate some cookies.
1513081021,49de413ab45774f71b0bc07c2cd5c655,PictureAccept,57,1,exp1-1,13,Pick a picture,1,0,1013,
1513081021,49de413ab45774f71b0bc07c2cd5c655,DashedSentence,215,0,f,87,1,Tom cleaned the towel while his girlfriend slept at the desk.,3409,FALSE,Tom cleaned the towel while his girlfriend slept at the desk.
1513081021,49de413ab45774f71b0bc07c2cd5c655,PictureAccept,215,1,f,87,Pick a picture,1,1,1164,
1513081021,49de413ab45774f71b0bc07c2cd5c655,DashedSentence,113,0,exp2-3,27,1,The lady looked at the bench which the workman moved very slowly during lunch.,6169,FALSE,The lady looked at the bench which the workman moved very slowly during lunch.
1513081021,49de413ab45774f71b0bc07c2cd5c655,PictureAccept,113,1,exp2-3,27,Pick a picture,1,1,1595,
1513081021,49de413ab45774f71b0bc07c2cd5c655,DashedSentence,222,0,f,94,1,The girl hit her brother even though he did nothing to her.,5410,FALSE,The girl hit her brother even though he did nothing to her.
1513081021,49de413ab45774f71b0bc07c2cd5c655,PictureAccept,222,1,f,94,Pick a picture,1,1,1760,
1513081021,49de413ab45774f71b0bc07c2cd5c655,DashedSentence,159,0,exp3-1,43,1,The teacher saw the apple which the student drew the banana beside earlier that day.,4805,FALSE,The teacher saw the apple which the student drew the banana beside earlier that day.
1513081021,49de413ab45774f71b0bc07c2cd5c655,PictureAccept,159,1,exp3-1,43,Pick a picture,2,1,4639,
1513081021,49de413ab45774f71b0bc07c2cd5c655,DashedSentence,199,0,f,71,1,The boy picked up the key in the room very quickly this morning.,3628,FALSE,The boy picked up the key in the room very quickly this morning.
1513081021,49de413ab45774f71b0bc07c2cd5c655,PictureAccept,199,1,f,71,Pick a picture,2,1,5188,
1513081021,49de413ab45774f71b0bc07c2cd5c655,DashedSentence,89,0,exp1-1,21,1,After the old lady dressed the boy in the bedroom checked the time.,3890,FALSE,After the old lady dressed the boy in the bedroom checked the time.
1513081021,49de413ab45774f71b0bc07c2cd5c655,PictureAccept,89,1,exp1-1,21,Pick a picture,1,0,1599,
1513081021,49de413ab45774f71b0bc07c2cd5c655,DashedSentence,190,0,f,62,1,The visitor saw the shark which was swimming very quickly in the aquarium.,3144,FALSE,The visitor saw the shark which was swimming very quickly in the aquarium.
1513081021,49de413ab45774f71b0bc07c2cd5c655,PictureAccept,190,1,f,62,Pick a picture,2,1,1676,
1513081021,49de413ab45774f71b0bc07c2cd5c655,DashedSentence,141,0,exp2-1,37,1,The taxi driver saw the newspaper which the cigarette burnt very slowly near during lunch.,6909,FALSE,The taxi driver saw the newspaper which the cigarette burnt very slowly near during lunch.
1513081021,49de413ab45774f71b0bc07c2cd5c655,PictureAccept,141,1,exp2-1,37,Pick a picture,2,0,1349,
1513081021,49de413ab45774f71b0bc07c2cd5c655,DashedSentence,236,0,f,108,1,The boy ate the fish while the lady ate the meat in the restaurant.,6445,FALSE,The boy ate the fish while the lady ate the meat in the restaurant.
1513081021,49de413ab45774f71b0bc07c2cd5c655,PictureAccept,236,1,f,108,Pick a picture,2,0,2446,
1513081021,49de413ab45774f71b0bc07c2cd5c655,DashedSentence,178,0,exp3-2,52,1,Jack found the bicycle beside which the mechanic repaired the car during the morning.,6815,FALSE,Jack found the bicycle beside which the mechanic repaired the car during the morning.
1513081021,49de413ab45774f71b0bc07c2cd5c655,PictureAccept,178,1,exp3-2,52,Pick a picture,1,1,1280,
1513081021,49de413ab45774f71b0bc07c2cd5c655,DashedSentence,224,0,f,96,1,The mother put just one tea cup on the table even though there were two guests.,3745,FALSE,The mother put just one tea cup on the table even though there were two guests.
1513081021,49de413ab45774f71b0bc07c2cd5c655,PictureAccept,224,1,f,96,Pick a picture,1,1,781,
1513081021,49de413ab45774f71b0bc07c2cd5c655,DashedSentence,179,0,exp3-1,53,1,Sophia saw the cup which the boy dropped the book beside that day.,3014,FALSE,Sophia saw the cup which the boy dropped the book beside that day.
1513081021,49de413ab45774f71b0bc07c2cd5c655,PictureAccept,179,1,exp3-1,53,Pick a picture,1,1,2622,
1513081021,49de413ab45774f71b0bc07c2cd5c655,DashedSentence,195,0,f,67,1,The brother saw three balls rolling down the slope very slowly near the house.,3440,FALSE,The brother saw three balls rolling down the slope very slowly near the house.
1513081021,49de413ab45774f71b0bc07c2cd5c655,PictureAccept,195,1,f,67,Pick a picture,2,1,839,
1513081021,49de413ab45774f71b0bc07c2cd5c655,DashedSentence,73,0,exp1-1,17,1,After the cat scratched the girl in the garden sat on the blanket.,5567,FALSE,After the cat scratched the girl in the garden sat on the blanket.
1513081021,49de413ab45774f71b0bc07c2cd5c655,PictureAccept,73,1,exp1-1,17,Pick a picture,2,1,4958,
1513081021,49de413ab45774f71b0bc07c2cd5c655,DashedSentence,210,0,f,82,1,The lady who wore a necklace hit the man with the glasses suddenly.,5626,FALSE,The lady who wore a necklace hit the man with the glasses suddenly.
1513081021,49de413ab45774f71b0bc07c2cd5c655,PictureAccept,210,1,f,82,Pick a picture,1,1,4921,
1513081021,49de413ab45774f71b0bc07c2cd5c655,DashedSentence,171,0,exp3-1,49,1,The nephew saw the door which the mother locked the suitcase beside before sleeping.,8425,FALSE,The nephew saw the door which the mother locked the suitcase beside before sleeping.
1513081021,49de413ab45774f71b0bc07c2cd5c655,PictureAccept,171,1,exp3-1,49,Pick a picture,2,0,2261,
1513081021,49de413ab45774f71b0bc07c2cd5c655,DashedSentence,207,0,f,79,1,The horse was near the rabbit which David patted in the morning.,4978,FALSE,The horse was near the rabbit which David patted in the morning.
1513081021,49de413ab45774f71b0bc07c2cd5c655,PictureAccept,207,1,f,79,Pick a picture,2,1,2212,
1513081021,49de413ab45774f71b0bc07c2cd5c655,DashedSentence,56,0,exp1-4,12,1,After the nurse washed%2C the child in the hospital sat on the chair.,3881,FALSE,After the nurse washed%2C the child in the hospital sat on the chair.
1513081021,49de413ab45774f71b0bc07c2cd5c655,PictureAccept,56,1,exp1-4,12,Pick a picture,1,1,1023,
1513081021,49de413ab45774f71b0bc07c2cd5c655,DashedSentence,226,0,f,98,1,The boy dropped the coffee cup in the room after reading the book.,3926,FALSE,The boy dropped the coffee cup in the room after reading the book.
1513081021,49de413ab45774f71b0bc07c2cd5c655,PictureAccept,226,1,f,98,Pick a picture,1,1,1571,
1513081021,49de413ab45774f71b0bc07c2cd5c655,DashedSentence,88,0,exp1-4,20,1,After the parents kissed%2C their child in the bedroom ate some biscuits.,3120,FALSE,After the parents kissed%2C their child in the bedroom ate some biscuits.
1513081021,49de413ab45774f71b0bc07c2cd5c655,PictureAccept,88,1,exp1-4,20,Pick a picture,2,1,1202,
1513081021,49de413ab45774f71b0bc07c2cd5c655,DashedSentence,223,0,f,95,1,The old woman made the cake very quickly while eating the bread rolls.,5492,FALSE,The old woman made the cake very quickly while eating the bread rolls.
1513081021,49de413ab45774f71b0bc07c2cd5c655,PictureAccept,223,1,f,95,Pick a picture,1,1,1239,
1513081021,49de413ab45774f71b0bc07c2cd5c655,DashedSentence,104,0,exp1-4,24,1,After parents kissed%2C their daughter in the hospital sat down on the sofa.,3330,FALSE,After parents kissed%2C their daughter in the hospital sat down on the sofa.
1513081021,49de413ab45774f71b0bc07c2cd5c655,PictureAccept,104,1,exp1-4,24,Pick a picture,2,1,885,
1513081021,49de413ab45774f71b0bc07c2cd5c655,DashedSentence,193,0,f,65,1,The father saw that some apples were on the shelf.,2909,FALSE,The father saw that some apples were on the shelf.
1513081021,49de413ab45774f71b0bc07c2cd5c655,PictureAccept,193,1,f,65,Pick a picture,2,1,939,
1513081021,49de413ab45774f71b0bc07c2cd5c655,DashedSentence,175,0,exp3-1,51,1,The pilot landed the airplane which the tourist watched the balloon near late at night.,3693,FALSE,The pilot landed the airplane which the tourist watched the balloon near late at night.
1513081021,49de413ab45774f71b0bc07c2cd5c655,PictureAccept,175,1,exp3-1,51,Pick a picture,1,1,888,
1513081021,49de413ab45774f71b0bc07c2cd5c655,DashedSentence,228,0,f,100,1,The mouse followed the cat which was walking on the road.,4200,FALSE,The mouse followed the cat which was walking on the road.
1513081021,49de413ab45774f71b0bc07c2cd5c655,PictureAccept,228,1,f,100,Pick a picture,1,1,2625,
1513081021,49de413ab45774f71b0bc07c2cd5c655,DashedSentence,122,0,exp2-3,30,1,The daughter saw the towel which the father washed very quickly that morning.,3444,FALSE,The daughter saw the towel which the father washed very quickly that morning.
1513081021,49de413ab45774f71b0bc07c2cd5c655,PictureAccept,122,1,exp2-3,30,Pick a picture,1,1,1522,
1513081021,49de413ab45774f71b0bc07c2cd5c655,DashedSentence,188,0,f,60,1,The decorator painted the wall which was near the truck very quickly.,5308,FALSE,The decorator painted the wall which was near the truck very quickly.
1513081021,49de413ab45774f71b0bc07c2cd5c655,PictureAccept,188,1,f,60,Pick a picture,1,0,1319,
1513081021,49de413ab45774f71b0bc07c2cd5c655,DashedSentence,14,0,exp1-2,2,1,After the woman dressed%2C the boy in the living room read a book.,5209,FALSE,After the woman dressed%2C the boy in the living room read a book.
1513081021,49de413ab45774f71b0bc07c2cd5c655,PictureAccept,14,1,exp1-2,2,Pick a picture,1,1,1451,
1513081021,49de413ab45774f71b0bc07c2cd5c655,DashedSentence,217,0,f,89,1,The boy broke the window while the girl climbed the tree.,2575,FALSE,The boy broke the window while the girl climbed the tree.
1513081021,49de413ab45774f71b0bc07c2cd5c655,PictureAccept,217,1,f,89,Pick a picture,1,1,1314,
1513081021,49de413ab45774f71b0bc07c2cd5c655,DashedSentence,149,0,exp2-3,39,1,The captain noticed the ship which the enemy attacked very swiftly during the war.,7625,FALSE,The captain noticed the ship which the enemy attacked very swiftly during the war.
1513081021,49de413ab45774f71b0bc07c2cd5c655,PictureAccept,149,1,exp2-3,39,Pick a picture,1,0,2402,
1513081021,49de413ab45774f71b0bc07c2cd5c655,DashedSentence,218,0,f,90,1,The man painted the truck even though he was asked to paint the wall.,6212,FALSE,The man painted the truck even though he was asked to paint the wall.
1513081021,49de413ab45774f71b0bc07c2cd5c655,PictureAccept,218,1,f,90,Pick a picture,1,1,734,
1513081021,49de413ab45774f71b0bc07c2cd5c655,DashedSentence,118,0,exp2-2,29,1,Jacob saw the desk from which the lady moved quite carefully after writing an email.,8185,FALSE,Jacob saw the desk from which the lady moved quite carefully after writing an email.
1513081021,49de413ab45774f71b0bc07c2cd5c655,PictureAccept,118,1,exp2-2,29,Pick a picture,1,0,1192,
1513081021,49de413ab45774f71b0bc07c2cd5c655,DashedSentence,184,0,f,56,1,When the man ate the spaghetti at lunch the waitress politely served another customer.,3566,FALSE,When the man ate the spaghetti at lunch the waitress politely served another customer.
1513081021,49de413ab45774f71b0bc07c2cd5c655,PictureAccept,184,1,f,56,Pick a picture,2,1,1197,
1513081021,49de413ab45774f71b0bc07c2cd5c655,DashedSentence,182,0,exp3-2,54,1,Monica saw the wall beside which the child touched the chair earlier that day.,3939,FALSE,Monica saw the wall beside which the child touched the chair earlier that day.
1513081021,49de413ab45774f71b0bc07c2cd5c655,PictureAccept,182,1,exp3-2,54,Pick a picture,2,0,2174,
1513081021,49de413ab45774f71b0bc07c2cd5c655,DashedSentence,201,0,f,73,1,The grandmother who loved flowers watered the tree in the garden.,6388,FALSE,The grandmother who loved flowers watered the tree in the garden.
1513081021,49de413ab45774f71b0bc07c2cd5c655,PictureAccept,201,1,f,73,Pick a picture,1,0,1338,
1513081021,49de413ab45774f71b0bc07c2cd5c655,DashedSentence,41,0,exp1-1,9,1,After the lady woke up her husband in the apartment drank some coffee.,3279,FALSE,After the lady woke up her husband in the apartment drank some coffee.
1513081021,49de413ab45774f71b0bc07c2cd5c655,PictureAccept,41,1,exp1-1,9,Pick a picture,2,0,2066,
1513081021,49de413ab45774f71b0bc07c2cd5c655,DashedSentence,194,0,f,66,1,The mother held just one tomato in the kitchen.,2748,FALSE,The mother held just one tomato in the kitchen.
1513081021,49de413ab45774f71b0bc07c2cd5c655,PictureAccept,194,1,f,66,Pick a picture,2,1,864,
1513081021,49de413ab45774f71b0bc07c2cd5c655,DashedSentence,158,0,exp2-3,42,1,The lady saw the horse which the owner washed very quickly later that morning.,7572,FALSE,The lady saw the horse which the owner washed very quickly later that morning.
1513081021,49de413ab45774f71b0bc07c2cd5c655,PictureAccept,158,1,exp2-3,42,Pick a picture,2,1,1827,
1513081021,49de413ab45774f71b0bc07c2cd5c655,DashedSentence,197,0,f,69,1,Amelia stood by the wall while the room was cleaned that day.,6242,FALSE,Amelia stood by the wall while the room was cleaned that day.
1513081021,49de413ab45774f71b0bc07c2cd5c655,PictureAccept,197,1,f,69,Pick a picture,2,1,1018,
1513081021,49de413ab45774f71b0bc07c2cd5c655,DashedSentence,24,0,exp1-4,4,1,After the parents hugged the child in the park sat on the bench.,2323,FALSE,After the parents hugged the child in the park sat on the bench.
1513081021,49de413ab45774f71b0bc07c2cd5c655,PictureAccept,24,1,exp1-4,4,Pick a picture,1,1,630,
1513081021,49de413ab45774f71b0bc07c2cd5c655,DashedSentence,214,0,f,86,1,The boy watched the movie while the old lady got dressed.,2087,FALSE,The boy watched the movie while the old lady got dressed.
1513081021,49de413ab45774f71b0bc07c2cd5c655,PictureAccept,214,1,f,86,Pick a picture,1,1,1537,
1513081021,49de413ab45774f71b0bc07c2cd5c655,DashedSentence,131,0,exp2-3,33,1,Elisa noticed the truck which the policeman watched very quietly earlier that morning.,4588,FALSE,Elisa noticed the truck which the policeman watched very quietly earlier that morning.
1513081021,49de413ab45774f71b0bc07c2cd5c655,PictureAccept,131,1,exp2-3,33,Pick a picture,1,1,2320,
1513081021,49de413ab45774f71b0bc07c2cd5c655,DashedSentence,202,0,f,74,1,Leah ate the fish even though she wanted to have meat last night.,4332,FALSE,Leah ate the fish even though she wanted to have meat last night.
1513081021,49de413ab45774f71b0bc07c2cd5c655,PictureAccept,202,1,f,74,Pick a picture,2,1,718,
1513081021,49de413ab45774f71b0bc07c2cd5c655,DashedSentence,150,0,exp2-1,40,1,The lady saw the bus which the spy watched completely silently from during the evening.,5109,FALSE,The lady saw the bus which the spy watched completely silently from during the evening.
1513081021,49de413ab45774f71b0bc07c2cd5c655,PictureAccept,150,1,exp2-1,40,Pick a picture,2,0,2624,
1513081021,49de413ab45774f71b0bc07c2cd5c655,DashedSentence,231,0,f,103,1,The boy who hid behind the tree saw Linda watering the flower.,6699,FALSE,The boy who hid behind the tree saw Linda watering the flower.
1513081021,49de413ab45774f71b0bc07c2cd5c655,PictureAccept,231,1,f,103,Pick a picture,1,1,754,
1513081021,49de413ab45774f71b0bc07c2cd5c655,DashedSentence,163,0,exp3-1,45,1,The father found the piano which the child played the guitar beside earlier today.,5735,FALSE,The father found the piano which the child played the guitar beside earlier today.
1513081021,49de413ab45774f71b0bc07c2cd5c655,PictureAccept,163,1,exp3-1,45,Pick a picture,2,1,874,
1513081021,49de413ab45774f71b0bc07c2cd5c655,DashedSentence,219,0,f,91,1,The man ate the spaghetti very quickly while the boy took a shower.,8206,FALSE,The man ate the spaghetti very quickly while the boy took a shower.
1513081021,49de413ab45774f71b0bc07c2cd5c655,PictureAccept,219,1,f,91,Pick a picture,1,1,1869,
1513081021,49de413ab45774f71b0bc07c2cd5c655,DashedSentence,127,0,exp2-2,32,1,Ellie observed the dog towards which the neighbour walked really happily during the morning.,6145,FALSE,Ellie observed the dog towards which the neighbour walked really happily during the morning.
1513081021,49de413ab45774f71b0bc07c2cd5c655,PictureAccept,127,1,exp2-2,32,Pick a picture,1,0,1796,
1513081021,49de413ab45774f71b0bc07c2cd5c655,DashedSentence,196,0,f,68,1,The shop assistant noticed that two cups were on the table in the store.,3419,FALSE,The shop assistant noticed that two cups were on the table in the store.
1513081021,49de413ab45774f71b0bc07c2cd5c655,PictureAccept,196,1,f,68,Pick a picture,2,1,725,
1513081021,49de413ab45774f71b0bc07c2cd5c655,DashedSentence,72,0,exp1-4,16,1,After the two girls hugged%2C their father at the station drank some lemonade.,3106,FALSE,After the two girls hugged%2C their father at the station drank some lemonade.
1513081021,49de413ab45774f71b0bc07c2cd5c655,PictureAccept,72,1,exp1-4,16,Pick a picture,2,1,958,
1513081021,49de413ab45774f71b0bc07c2cd5c655,DashedSentence,221,0,f,93,1,Mark told his wife that there was just one apple on the shelf.,3831,FALSE,Mark told his wife that there was just one apple on the shelf.
1513081021,49de413ab45774f71b0bc07c2cd5c655,PictureAccept,221,1,f,93,Pick a picture,1,1,669,
1513081021,49de413ab45774f71b0bc07c2cd5c655,DashedSentence,167,0,exp3-1,47,1,Anna looked at the table which the man carried the chair near quite hastily.,5531,FALSE,Anna looked at the table which the man carried the chair near quite hastily.
1513081021,49de413ab45774f71b0bc07c2cd5c655,PictureAccept,167,1,exp3-1,47,Pick a picture,2,1,1688,
1513081021,49de413ab45774f71b0bc07c2cd5c655,DashedSentence,212,0,f,84,1,The trendy student who had a cellphone walked by the old teacher with the textbook.,10907,FALSE,The trendy student who had a cellphone walked by the old teacher with the textbook.
1513081021,49de413ab45774f71b0bc07c2cd5c655,PictureAccept,212,1,f,84,Pick a picture,1,1,3597,
1513081021,49de413ab45774f71b0bc07c2cd5c655,DashedSentence,62,0,exp1-2,14,1,After the nurse woke up%2C the patient in the hospital knocked on the door.,3997,FALSE,After the nurse woke up%2C the patient in the hospital knocked on the door.
1513081021,49de413ab45774f71b0bc07c2cd5c655,PictureAccept,62,1,exp1-2,14,Pick a picture,2,1,1955,
1513081021,49de413ab45774f71b0bc07c2cd5c655,DashedSentence,203,0,f,75,1,The boy saw the mouse was chased by the cat very quickly in the street.,3813,FALSE,The boy saw the mouse was chased by the cat very quickly in the street.
1513081021,49de413ab45774f71b0bc07c2cd5c655,PictureAccept,203,1,f,75,Pick a picture,2,1,1961,
1513081021,49de413ab45774f71b0bc07c2cd5c655,DashedSentence,78,0,exp1-2,18,1,After the grandmother washed%2C the boy at home listened to some music.,4355,FALSE,After the grandmother washed%2C the boy at home listened to some music.
1513081021,49de413ab45774f71b0bc07c2cd5c655,PictureAccept,78,1,exp1-2,18,Pick a picture,2,1,1493,
1513081021,49de413ab45774f71b0bc07c2cd5c655,DashedSentence,198,0,f,70,1,Grace wore the skirt to the party in town last weekend.,3143,FALSE,Grace wore the skirt to the party in town last weekend.
1513081021,49de413ab45774f71b0bc07c2cd5c655,PictureAccept,198,1,f,70,Pick a picture,2,1,1511,
1513081021,49de413ab45774f71b0bc07c2cd5c655,DashedSentence,140,0,exp2-3,36,1,Rose saw the truck which the man shot very quickly during the robbery.,5196,FALSE,Rose saw the truck which the man shot very quickly during the robbery.
1513081021,49de413ab45774f71b0bc07c2cd5c655,PictureAccept,140,1,exp2-3,36,Pick a picture,2,1,4059,
1513081021,49de413ab45774f71b0bc07c2cd5c655,DashedSentence,220,0,f,92,1,The child threw the ball very quickly in the small park.,2869,FALSE,The child threw the ball very quickly in the small park.
1513081021,49de413ab45774f71b0bc07c2cd5c655,PictureAccept,220,1,f,92,Pick a picture,1,1,1243,
1513081021,49de413ab45774f71b0bc07c2cd5c655,DashedSentence,174,0,exp3-2,50,1,Alex looked at the cake beside which the grandmother baked the bread rolls late at night.,8275,FALSE,Alex looked at the cake beside which the grandmother baked the bread rolls late at night.
1513081021,49de413ab45774f71b0bc07c2cd5c655,PictureAccept,174,1,exp3-2,50,Pick a picture,1,1,1489,
1513081021,49de413ab45774f71b0bc07c2cd5c655,DashedSentence,206,0,f,78,1,The child heard that the grandmother kissed the grandfather before going to sleep.,4874,FALSE,The child heard that the grandmother kissed the grandfather before going to sleep.
1513081021,49de413ab45774f71b0bc07c2cd5c655,PictureAccept,206,1,f,78,Pick a picture,1,0,2606,
1513081021,49de413ab45774f71b0bc07c2cd5c655,DashedSentence,99,0,exp1-3,23,1,After the mother washed the child in the house watched the television.,2981,FALSE,After the mother washed the child in the house watched the television.
1513081021,49de413ab45774f71b0bc07c2cd5c655,PictureAccept,99,1,exp1-3,23,Pick a picture,2,1,1440,
1513081021,49de413ab45774f71b0bc07c2cd5c655,DashedSentence,234,0,f,106,1,The lady who liked the rabbit saw the man patting the horse.,5026,FALSE,The lady who liked the rabbit saw the man patting the horse.
1513081021,49de413ab45774f71b0bc07c2cd5c655,PictureAccept,234,1,f,106,Pick a picture,1,1,660,
1513081021,49de413ab45774f71b0bc07c2cd5c655,DashedSentence,40,0,exp1-4,8,1,After Emily dressed%2C the boy in the house watched the television.,2802,FALSE,After Emily dressed%2C the boy in the house watched the television.
1513081021,49de413ab45774f71b0bc07c2cd5c655,PictureAccept,40,1,exp1-4,8,Pick a picture,1,1,1203,
1513081021,49de413ab45774f71b0bc07c2cd5c655,DashedSentence,209,0,f,81,1,The man who had a map talked to the lady with the camera very politely.,3366,FALSE,The man who had a map talked to the lady with the camera very politely.
1513081021,49de413ab45774f71b0bc07c2cd5c655,PictureAccept,209,1,f,81,Pick a picture,2,1,804,
1513081021,49de413ab45774f71b0bc07c2cd5c655,DashedSentence,132,0,exp2-1,34,1,The criminal noticed the car which the guard watched very carefully from during the evening.,10139,FALSE,The criminal noticed the car which the guard watched very carefully from during the evening.
1513081021,49de413ab45774f71b0bc07c2cd5c655,PictureAccept,132,1,exp2-1,34,Pick a picture,2,0,2211,
1513081021,49de413ab45774f71b0bc07c2cd5c655,DashedSentence,191,0,f,63,1,Lily looked for the headphones which were under the chair this morning.,3686,FALSE,Lily looked for the headphones which were under the chair this morning.
1513081021,49de413ab45774f71b0bc07c2cd5c655,PictureAccept,191,1,f,63,Pick a picture,2,1,1185,
1513081021,49de413ab45774f71b0bc07c2cd5c655,DashedSentence,170,0,exp3-2,48,1,Katie saw the window which the boy broke the toy beside during the weekend.,7220,FALSE,Katie saw the window which the boy broke the toy beside during the weekend.
1513081021,49de413ab45774f71b0bc07c2cd5c655,PictureAccept,170,1,exp3-2,48,Pick a picture,2,1,2288,
1513081021,49de413ab45774f71b0bc07c2cd5c655,DashedSentence,204,0,f,76,1,The neighbour patted the cat which the dog licked in the garden.,4332,FALSE,The neighbour patted the cat which the dog licked in the garden.
1513081021,49de413ab45774f71b0bc07c2cd5c655,PictureAccept,204,1,f,76,Pick a picture,2,1,2103,
1513081021,49de413ab45774f71b0bc07c2cd5c655,DashedSentence,9,0,exp1-1,1,1,After the lady woke up the child in the room ate a sandwich.,3875,FALSE,After the lady woke up the child in the room ate a sandwich.
1513081021,49de413ab45774f71b0bc07c2cd5c655,PictureAccept,9,1,exp1-1,1,Pick a picture,1,1,1440,
1513081021,49de413ab45774f71b0bc07c2cd5c655,DashedSentence,216,0,f,88,1,The child in the house saw the cat which was sleeping very quietly.,2613,FALSE,The child in the house saw the cat which was sleeping very quietly.
1513081021,49de413ab45774f71b0bc07c2cd5c655,PictureAccept,216,1,f,88,Pick a picture,1,1,1728,
1513081021,49de413ab45774f71b0bc07c2cd5c655,DashedSentence,162,0,exp3-2,44,1,The girl looked at the truck beside which the neighbour washed the bike last night.,6230,FALSE,The girl looked at the truck beside which the neighbour washed the bike last night.
1513081021,49de413ab45774f71b0bc07c2cd5c655,PictureAccept,162,1,exp3-2,44,Pick a picture,1,0,3065,
1513081021,49de413ab45774f71b0bc07c2cd5c655,DashedSentence,200,0,f,72,1,The business man smoked while his wife ordered a beer.,6456,FALSE,The business man smoked while his wife ordered a beer.
1513081021,49de413ab45774f71b0bc07c2cd5c655,PictureAccept,200,1,f,72,Pick a picture,1,0,1341,
1513081021,49de413ab45774f71b0bc07c2cd5c655,DashedSentence,145,0,exp2-2,38,1,The king saw the castle from which the men attacked very bravely during the battle.,6925,FALSE,The king saw the castle from which the men attacked very bravely during the battle.
1513081021,49de413ab45774f71b0bc07c2cd5c655,PictureAccept,145,1,exp2-2,38,Pick a picture,2,0,4188,
1513081021,49de413ab45774f71b0bc07c2cd5c655,DashedSentence,232,0,f,104,1,The trendy student who took the exam noticed that the old teacher had a cellphone.,3274,FALSE,The trendy student who took the exam noticed that the old teacher had a cellphone.
1513081021,49de413ab45774f71b0bc07c2cd5c655,PictureAccept,232,1,f,104,Pick a picture,1,1,983,
1513081021,49de413ab45774f71b0bc07c2cd5c655,DashedSentence,109,0,exp2-2,26,1,The teacher saw the chair from which the student moved very quickly before class began.,4602,FALSE,The teacher saw the chair from which the student moved very quickly before class began.
1513081021,49de413ab45774f71b0bc07c2cd5c655,PictureAccept,109,1,exp2-2,26,Pick a picture,2,1,2567,
1513081021,49de413ab45774f71b0bc07c2cd5c655,DashedSentence,233,0,f,105,1,The lady who hated accessories saw her boyfriend wearing the camera.,5148,FALSE,The lady who hated accessories saw her boyfriend wearing the camera.
1513081021,49de413ab45774f71b0bc07c2cd5c655,PictureAccept,233,1,f,105,Pick a picture,1,1,788,
1513081021,49de413ab45774f71b0bc07c2cd5c655,DashedSentence,25,0,exp1-1,5,1,After the lady washed the boy in the house cleaned the plate.,4507,FALSE,After the lady washed the boy in the house cleaned the plate.
1513081021,49de413ab45774f71b0bc07c2cd5c655,PictureAccept,25,1,exp1-1,5,Pick a picture,2,0,940,
1513081021,49de413ab45774f71b0bc07c2cd5c655,DashedSentence,183,0,f,55,1,While the cat ate the food in the kitchen the man slept very quietly.,4573,FALSE,While the cat ate the food in the kitchen the man slept very quietly.
1513081021,49de413ab45774f71b0bc07c2cd5c655,PictureAccept,183,1,f,55,Pick a picture,2,1,1341,
1513081021,49de413ab45774f71b0bc07c2cd5c655,DashedSentence,46,0,exp1-2,10,1,After the parents kissed%2C their son in the dining room ate some bread.,3307,FALSE,After the parents kissed%2C their son in the dining room ate some bread.
1513081021,49de413ab45774f71b0bc07c2cd5c655,PictureAccept,46,1,exp1-2,10,Pick a picture,1,1,1599,
1513081021,49de413ab45774f71b0bc07c2cd5c655,DashedSentence,185,0,f,57,1,When Jacob opened the door%2C the dog ran out very quickly.,2080,FALSE,When Jacob opened the door%2C the dog ran out very quickly.
1513081021,49de413ab45774f71b0bc07c2cd5c655,PictureAccept,185,1,f,57,Pick a picture,2,1,1138,
1513081021,49de413ab45774f71b0bc07c2cd5c655,DashedSentence,83,0,exp1-3,19,1,After the lady woke up her boyfriend in the flat drank a cup of tea.,3666,FALSE,After the lady woke up her boyfriend in the flat drank a cup of tea.
1513081021,49de413ab45774f71b0bc07c2cd5c655,PictureAccept,83,1,exp1-3,19,Pick a picture,2,1,802,
1513081021,49de413ab45774f71b0bc07c2cd5c655,DashedSentence,227,0,f,99,1,George put the headphones on the chair and went out for dinner.,2600,FALSE,George put the headphones on the chair and went out for dinner.
1513081021,49de413ab45774f71b0bc07c2cd5c655,PictureAccept,227,1,f,99,Pick a picture,1,1,575,
1513081021,49de413ab45774f71b0bc07c2cd5c655,DashedSentence,154,0,exp2-2,41,1,The commander saw the tank from which the soldier shot very quickly during the weekend.,9037,FALSE,The commander saw the tank from which the soldier shot very quickly during the weekend.
1513081021,49de413ab45774f71b0bc07c2cd5c655,PictureAccept,154,1,exp2-2,41,Pick a picture,2,0,2485,
1513081021,49de413ab45774f71b0bc07c2cd5c655,DashedSentence,205,0,f,77,1,The girl said that the boy hit her suddenly in the living room.,4265,FALSE,The girl said that the boy hit her suddenly in the living room.
1513081021,49de413ab45774f71b0bc07c2cd5c655,PictureAccept,205,1,f,77,Pick a picture,2,1,1521,
1513081021,49de413ab45774f71b0bc07c2cd5c655,DashedSentence,166,0,exp3-2,46,1,Luke saw the flower near which the girl drew the tree very happily.,4858,FALSE,Luke saw the flower near which the girl drew the tree very happily.
1513081021,49de413ab45774f71b0bc07c2cd5c655,PictureAccept,166,1,exp3-2,46,Pick a picture,2,1,912,
1513081021,49de413ab45774f71b0bc07c2cd5c655,DashedSentence,208,0,f,80,1,The policeman said that he met the woman with glasses last night.,3532,FALSE,The policeman said that he met the woman with glasses last night.
1513081021,49de413ab45774f71b0bc07c2cd5c655,PictureAccept,208,1,f,80,Pick a picture,2,1,997,
1513081021,49de413ab45774f71b0bc07c2cd5c655,DashedSentence,67,0,exp1-3,15,1,After the grandmother dressed the child in the bedroom looked at the clock.,3618,FALSE,After the grandmother dressed the child in the bedroom looked at the clock.
1513081021,49de413ab45774f71b0bc07c2cd5c655,PictureAccept,67,1,exp1-3,15,Pick a picture,1,0,863,
1513081021,49de413ab45774f71b0bc07c2cd5c655,DashedSentence,189,0,f,61,1,The boy kicked the ball which was near the tree in the park.,7427,FALSE,The boy kicked the ball which was near the tree in the park.
1513081021,49de413ab45774f71b0bc07c2cd5c655,PictureAccept,189,1,f,61,Pick a picture,2,1,1453,
1513081021,49de413ab45774f71b0bc07c2cd5c655,DashedSentence,19,0,exp1-3,3,1,After the bear scratched the lion in the forest climbed the tree.,3938,FALSE,After the bear scratched the lion in the forest climbed the tree.
1513081021,49de413ab45774f71b0bc07c2cd5c655,PictureAccept,19,1,exp1-3,3,Pick a picture,1,1,2770,
1513081021,49de413ab45774f71b0bc07c2cd5c655,DashedSentence,186,0,f,58,1,While the dog sniffed the flower in the park%2C the child played with the ball quite happily.,7046,FALSE,While the dog sniffed the flower in the park%2C the child played with the ball quite happily.
1513081021,49de413ab45774f71b0bc07c2cd5c655,PictureAccept,186,1,f,58,Pick a picture,2,1,1094,
1513081021,49de413ab45774f71b0bc07c2cd5c655,DashedSentence,51,0,exp1-3,11,1,When the two students hugged the teacher at the graduation ceremony cried very happily.,3354,FALSE,When the two students hugged the teacher at the graduation ceremony cried very happily.
1513081021,49de413ab45774f71b0bc07c2cd5c655,PictureAccept,51,1,exp1-3,11,Pick a picture,2,0,1461,
1513081021,49de413ab45774f71b0bc07c2cd5c655,DashedSentence,211,0,f,83,1,The woman who had an umbrella saw the policeman with the pistol.,2276,FALSE,The woman who had an umbrella saw the policeman with the pistol.
1513081021,49de413ab45774f71b0bc07c2cd5c655,PictureAccept,211,1,f,83,Pick a picture,1,1,1268,
1513081021,49de413ab45774f71b0bc07c2cd5c655,DashedSentence,114,0,exp2-1,28,1,Kevin saw the letter which the candle burnt very quickly beside last night.,4665,FALSE,Kevin saw the letter which the candle burnt very quickly beside last night.
1513081021,49de413ab45774f71b0bc07c2cd5c655,PictureAccept,114,1,exp2-1,28,Pick a picture,1,0,2986,
1513081021,49de413ab45774f71b0bc07c2cd5c655,DashedSentence,187,0,f,59,1,The girl looked at the puddle to pass the time.,2011,FALSE,The girl looked at the puddle to pass the time.
1513081021,49de413ab45774f71b0bc07c2cd5c655,PictureAccept,187,1,f,59,Pick a picture,2,1,866,
1513081021,49de413ab45774f71b0bc07c2cd5c655,DashedSentence,94,0,exp1-2,22,1,After the dog scratched%2C the boy in the house drank some milk.,3193,FALSE,After the dog scratched%2C the boy in the house drank some milk.
1513081021,49de413ab45774f71b0bc07c2cd5c655,PictureAccept,94,1,exp1-2,22,Pick a picture,2,1,1279,
1513081021,49de413ab45774f71b0bc07c2cd5c655,DashedSentence,230,0,f,102,1,The woman washed her hair very quickly while Edward had a nap.,2989,FALSE,The woman washed her hair very quickly while Edward had a nap.
1513081021,49de413ab45774f71b0bc07c2cd5c655,PictureAccept,230,1,f,102,Pick a picture,1,1,1138,
1513081021,49de413ab45774f71b0bc07c2cd5c655,DashedSentence,35,0,exp1-3,7,1,After the mouse scratched the researcher in the university drank some water.,3572,FALSE,After the mouse scratched the researcher in the university drank some water.
1513081021,49de413ab45774f71b0bc07c2cd5c655,PictureAccept,35,1,exp1-3,7,Pick a picture,2,0,1285,
1513081021,49de413ab45774f71b0bc07c2cd5c655,DashedSentence,213,0,f,85,1,The son bit the sandwich while his mother took a nap.,6150,FALSE,The son bit the sandwich while his mother took a nap.
1513081021,49de413ab45774f71b0bc07c2cd5c655,PictureAccept,213,1,f,85,Pick a picture,1,1,1266,
1513081021,49de413ab45774f71b0bc07c2cd5c655,DashedSentence,123,0,exp2-1,31,1,The parent noticed the paper which the fire burnt very intensely beside last weekend.,7182,FALSE,The parent noticed the paper which the fire burnt very intensely beside last weekend.
1513081021,49de413ab45774f71b0bc07c2cd5c655,PictureAccept,123,1,exp2-1,31,Pick a picture,2,1,1620,
1513081021,49de413ab45774f71b0bc07c2cd5c655,DashedSentence,192,0,f,64,1,The customer saw the spoon which was on the plate in the restaurant.,3206,FALSE,The customer saw the spoon which was on the plate in the restaurant.
1513081021,49de413ab45774f71b0bc07c2cd5c655,PictureAccept,192,1,f,64,Pick a picture,2,1,2645,
1513081021,49de413ab45774f71b0bc07c2cd5c655,DashedSentence,136,0,exp2-2,35,1,The reporter watched the ship from which the sniper shot very carefully during the battle.,6544,FALSE,The reporter watched the ship from which the sniper shot very carefully during the battle.
1513081021,49de413ab45774f71b0bc07c2cd5c655,PictureAccept,136,1,exp2-2,35,Pick a picture,2,0,2800,
1513081021,49de413ab45774f71b0bc07c2cd5c655,DashedSentence,225,0,f,97,1,The child played by rolling just one ball near the house.,4823,FALSE,The child played by rolling just one ball near the house.
1513081021,49de413ab45774f71b0bc07c2cd5c655,PictureAccept,225,1,f,97,Pick a picture,1,1,546,
1513081021,49de413ab45774f71b0bc07c2cd5c655,DashedSentence,105,0,exp2-1,25,1,The cameraman saw the helicopter which the soldier attacked very swiftly from during the war,5686,FALSE,The cameraman saw the helicopter which the soldier attacked very swiftly from during the war
1513081021,49de413ab45774f71b0bc07c2cd5c655,PictureAccept,105,1,exp2-1,25,Pick a picture,1,0,5489,
1513081021,49de413ab45774f71b0bc07c2cd5c655,DashedSentence,235,0,f,107,1,The man who hated smoke drank a lot of beer last night.,5092,FALSE,The man who hated smoke drank a lot of beer last night.
1513081021,49de413ab45774f71b0bc07c2cd5c655,PictureAccept,235,1,f,107,Pick a picture,1,1,1168,
1513081021,49de413ab45774f71b0bc07c2cd5c655,DashedSentence,30,0,exp1-2,6,1,After the parents kissed%2C the child in the kitchen ate some chocolate.,2529,FALSE,After the parents kissed%2C the child in the kitchen ate some chocolate.
1513081021,49de413ab45774f71b0bc07c2cd5c655,PictureAccept,30,1,exp1-2,6,Pick a picture,1,1,1570,
1513081021,49de413ab45774f71b0bc07c2cd5c655,DashedSentence,229,0,f,101,1,The bear attacked by the lion climbed the tree very quickly.,5030,FALSE,The bear attacked by the lion climbed the tree very quickly.
1513081021,49de413ab45774f71b0bc07c2cd5c655,PictureAccept,229,1,f,101,Pick a picture,1,1,4203,
#,,,,,,,,,,,
# Results on Wednesday December 13 2017 14:20:01 UTC.,,,,,,,,,,,
# USER AGENT: Mozilla/5.0 (Macintosh; Intel Mac OS X 10_13_1) AppleWebKit/604.3.5 (KHTML, like Gecko) Version/11.0.1 Safari/604.3.5,,,,,,,,,,
# Design number was non-random = 1,,,,,,,,,,,
#,,,,,,,,,,,
# Columns below this comment are as follows:,,,,,,,,,,,
# 1. Time results were received.,,,,,,,,,,,
# 2. MD5 hash of participant's IP address.,,,,,,,,,,,
# 3. Controller name.,,,,,,,,,,,
# 4. Item number.,,,,,,,,,,,
# 5. Element number.,,,,,,,,,,,
# 6. Type.,,,,,,,,,,,
# 7. Group.,,,,,,,,,,,
# 8. Field name.,,,,,,,,,,,
# 9. Field value.,,,,,,,,,,,
1513174801,49de413ab45774f71b0bc07c2cd5c655,Form,3,0,intro,NULL,name,2,,,
1513174801,49de413ab45774f71b0bc07c2cd5c655,Form,3,0,intro,NULL,age,2,,,
1513174801,49de413ab45774f71b0bc07c2cd5c655,Form,3,0,intro,NULL,_REACTION_TIME_,189438,,,
# The lines below this comment are in groups of 2.,,,,,,,,,,,
# The formats of the lines in each of these groups are as follows:,,,,,,,,,,,
#,,,,,,,,,,,
# Line 1:,,,,,,,,,,,
#     Col. 1: Time results were received.,,,,,,,,,,,
#     Col. 2: MD5 hash of participant's IP address.,,,,,,,,,,,
#     Col. 3: Controller name.,,,,,,,,,,,
#     Col. 4: Item number.,,,,,,,,,,,
#     Col. 5: Element number.,,,,,,,,,,,
#     Col. 6: Type.,,,,,,,,,,,
#     Col. 7: Group.,,,,,,,,,,,
#     Col. 8: Word number.,,,,,,,,,,,
#     Col. 9: Word.,,,,,,,,,,,
#     Col. 10: Reading time.,,,,,,,,,,,
#     Col. 11: Newline?,,,,,,,,,,,
#     Col. 12: Sentence (or sentence MD5).,,,,,,,,,,,
# Line 2:,,,,,,,,,,,
#     Col. 1: Time results were received.,,,,,,,,,,,
#     Col. 2: MD5 hash of participant's IP address.,,,,,,,,,,,
#     Col. 3: Controller name.,,,,,,,,,,,
#     Col. 4: Item number.,,,,,,,,,,,
#     Col. 5: Element number.,,,,,,,,,,,
#     Col. 6: Type.,,,,,,,,,,,
#     Col. 7: Group.,,,,,,,,,,,
#     Col. 8: Sentence.,,,,,,,,,,,
#     Col. 9: Chosen picture (Starting from 1).,,,,,,,,,,,
#     Col. 10: Whether or not answer was correct (NULL if N/A).,,,,,,,,,,,
#     Col. 11: Time taken to answer.,,,,,,,,,,,
1513174801,49de413ab45774f71b0bc07c2cd5c655,DashedSentence,5,0,practice,NULL,1,Someone looked at the airplane flying in the sky yesterday morning.,2199,FALSE,Someone looked at the airplane flying in the sky yesterday morning.
1513174801,49de413ab45774f71b0bc07c2cd5c655,PictureAccept,5,1,practice,NULL,Pick a picture,1,1,1537,
1513174801,49de413ab45774f71b0bc07c2cd5c655,DashedSentence,6,0,practice,NULL,1,Alice noticed that there was a puddle in front of her.,1804,FALSE,Alice noticed that there was a puddle in front of her.
1513174801,49de413ab45774f71b0bc07c2cd5c655,PictureAccept,6,1,practice,NULL,Pick a picture,2,0,2400,
1513174801,49de413ab45774f71b0bc07c2cd5c655,DashedSentence,7,0,practice,NULL,1,Two students with school uniforms were walking slowly in the classroom,2742,FALSE,Two students with school uniforms were walking slowly in the classroom
1513174801,49de413ab45774f71b0bc07c2cd5c655,PictureAccept,7,1,practice,NULL,Pick a picture,2,0,1398,
1513174801,49de413ab45774f71b0bc07c2cd5c655,DashedSentence,8,0,practice,NULL,1,There were more than one apple on the shelf.,3654,FALSE,There were more than one apple on the shelf.
1513174801,49de413ab45774f71b0bc07c2cd5c655,PictureAccept,8,1,practice,NULL,Pick a picture,2,0,1283,
1513174801,49de413ab45774f71b0bc07c2cd5c655,DashedSentence,10,0,exp1-2,1,1,After the lady woke up%2C the child in the room ate a sandwich.,2199,FALSE,After the lady woke up%2C the child in the room ate a sandwich.
1513174801,49de413ab45774f71b0bc07c2cd5c655,PictureAccept,10,1,exp1-2,1,Pick a picture,1,1,3076,
1513174801,49de413ab45774f71b0bc07c2cd5c655,DashedSentence,188,0,f,60,1,The decorator painted the wall which was near the truck very quickly.,4916,FALSE,The decorator painted the wall which was near the truck very quickly.
1513174801,49de413ab45774f71b0bc07c2cd5c655,PictureAccept,188,1,f,60,Pick a picture,1,0,5581,
1513174801,49de413ab45774f71b0bc07c2cd5c655,DashedSentence,26,0,exp1-2,5,1,After the lady washed%2C the boy in the house cleaned the plate.,4952,FALSE,After the lady washed%2C the boy in the house cleaned the plate.
1513174801,49de413ab45774f71b0bc07c2cd5c655,PictureAccept,26,1,exp1-2,5,Pick a picture,1,1,4730,
1513174801,49de413ab45774f71b0bc07c2cd5c655,DashedSentence,229,0,f,101,1,The bear attacked by the lion climbed the tree very quickly.,9003,FALSE,The bear attacked by the lion climbed the tree very quickly.
1513174801,49de413ab45774f71b0bc07c2cd5c655,PictureAccept,229,1,f,101,Pick a picture,1,1,6431,
1513174801,49de413ab45774f71b0bc07c2cd5c655,DashedSentence,15,0,exp1-3,2,1,After the woman dressed the boy in the living room read a book.,4575,FALSE,After the woman dressed the boy in the living room read a book.
1513174801,49de413ab45774f71b0bc07c2cd5c655,PictureAccept,15,1,exp1-3,2,Pick a picture,1,1,1966,
1513174801,49de413ab45774f71b0bc07c2cd5c655,DashedSentence,214,0,f,86,1,The boy watched the movie while the old lady got dressed.,1838,FALSE,The boy watched the movie while the old lady got dressed.
1513174801,49de413ab45774f71b0bc07c2cd5c655,PictureAccept,214,1,f,86,Pick a picture,1,1,3578,
1513174801,49de413ab45774f71b0bc07c2cd5c655,DashedSentence,164,0,exp3-2,45,1,The father found the piano beside which the child played the guitar earlier today.,7614,FALSE,The father found the piano beside which the child played the guitar earlier today.
1513174801,49de413ab45774f71b0bc07c2cd5c655,PictureAccept,164,1,exp3-2,45,Pick a picture,2,1,2426,
1513174801,49de413ab45774f71b0bc07c2cd5c655,DashedSentence,232,0,f,104,1,The trendy student who took the exam noticed that the old teacher had a cellphone.,3105,FALSE,The trendy student who took the exam noticed that the old teacher had a cellphone.
1513174801,49de413ab45774f71b0bc07c2cd5c655,PictureAccept,232,1,f,104,Pick a picture,1,1,1518,
1513174801,49de413ab45774f71b0bc07c2cd5c655,DashedSentence,160,0,exp3-2,43,1,The teacher saw the apple beside which the student drew the banana earlier that day.,4352,FALSE,The teacher saw the apple beside which the student drew the banana earlier that day.
1513174801,49de413ab45774f71b0bc07c2cd5c655,PictureAccept,160,1,exp3-2,43,Pick a picture,1,0,2057,
1513174801,49de413ab45774f71b0bc07c2cd5c655,DashedSentence,217,0,f,89,1,The boy broke the window while the girl climbed the tree.,2469,FALSE,The boy broke the window while the girl climbed the tree.
1513174801,49de413ab45774f71b0bc07c2cd5c655,PictureAccept,217,1,f,89,Pick a picture,1,1,4824,
1513174801,49de413ab45774f71b0bc07c2cd5c655,DashedSentence,58,0,exp1-2,13,1,After the two brothers hugged%2C their mother at the station ate some cookies.,4792,FALSE,After the two brothers hugged%2C their mother at the station ate some cookies.
1513174801,49de413ab45774f71b0bc07c2cd5c655,PictureAccept,58,1,exp1-2,13,Pick a picture,1,0,2543,
1513174801,49de413ab45774f71b0bc07c2cd5c655,DashedSentence,219,0,f,91,1,The man ate the spaghetti very quickly while the boy took a shower.,-27597,FALSE,The man ate the spaghetti very quickly while the boy took a shower.
1513174801,49de413ab45774f71b0bc07c2cd5c655,PictureAccept,219,1,f,91,Pick a picture,1,1,4788,
1513174801,49de413ab45774f71b0bc07c2cd5c655,DashedSentence,124,0,exp2-2,31,1,The parent noticed the paper beside which the fire burnt very intensely last weekend,7466,FALSE,The parent noticed the paper beside which the fire burnt very intensely last weekend
1513174801,49de413ab45774f71b0bc07c2cd5c655,PictureAccept,124,1,exp2-2,31,Pick a picture,2,1,2346,
1513174801,49de413ab45774f71b0bc07c2cd5c655,DashedSentence,210,0,f,82,1,The lady who wore a necklace hit the man with the glasses suddenly.,4360,FALSE,The lady who wore a necklace hit the man with the glasses suddenly.
1513174801,49de413ab45774f71b0bc07c2cd5c655,PictureAccept,210,1,f,82,Pick a picture,1,1,3023,
1513174801,49de413ab45774f71b0bc07c2cd5c655,DashedSentence,101,0,exp1-1,24,1,After the parents kissed their daughter in the hospital sat down on the sofa.,8639,FALSE,After the parents kissed their daughter in the hospital sat down on the sofa.
1513174801,49de413ab45774f71b0bc07c2cd5c655,PictureAccept,101,1,exp1-1,24,Pick a picture,2,1,2685,
1513174801,49de413ab45774f71b0bc07c2cd5c655,DashedSentence,183,0,f,55,1,While the cat ate the food in the kitchen the man slept very quietly.,5763,FALSE,While the cat ate the food in the kitchen the man slept very quietly.
1513174801,49de413ab45774f71b0bc07c2cd5c655,PictureAccept,183,1,f,55,Pick a picture,2,1,2203,
1513174801,49de413ab45774f71b0bc07c2cd5c655,DashedSentence,155,0,exp2-3,41,1,The commander saw the tank which the soldier shot very quickly during the weekend.,6327,FALSE,The commander saw the tank which the soldier shot very quickly during the weekend.
1513174801,49de413ab45774f71b0bc07c2cd5c655,PictureAccept,155,1,exp2-3,41,Pick a picture,2,1,4018,
1513174801,49de413ab45774f71b0bc07c2cd5c655,DashedSentence,222,0,f,94,1,The girl hit her brother even though he did nothing to her.,3533,FALSE,The girl hit her brother even though he did nothing to her.
1513174801,49de413ab45774f71b0bc07c2cd5c655,PictureAccept,222,1,f,94,Pick a picture,1,1,6739,
1513174801,49de413ab45774f71b0bc07c2cd5c655,DashedSentence,21,0,exp1-1,4,1,After the parents hugged the child in the park sat on the bench.,6537,FALSE,After the parents hugged the child in the park sat on the bench.
1513174801,49de413ab45774f71b0bc07c2cd5c655,PictureAccept,21,1,exp1-1,4,Pick a picture,1,1,1607,
1513174801,49de413ab45774f71b0bc07c2cd5c655,DashedSentence,202,0,f,74,1,Leah ate the fish even though she wanted to have meat last night.,3308,FALSE,Leah ate the fish even though she wanted to have meat last night.
1513174801,49de413ab45774f71b0bc07c2cd5c655,PictureAccept,202,1,f,74,Pick a picture,2,1,2898,
1513174801,49de413ab45774f71b0bc07c2cd5c655,DashedSentence,31,0,exp1-3,6,1,After the parents kissed the child in the kitchen ate some chocolate.,3465,FALSE,After the parents kissed the child in the kitchen ate some chocolate.
1513174801,49de413ab45774f71b0bc07c2cd5c655,PictureAccept,31,1,exp1-3,6,Pick a picture,1,1,2952,
1513174801,49de413ab45774f71b0bc07c2cd5c655,DashedSentence,209,0,f,81,1,The man who had a map talked to the lady with the camera very politely.,4144,FALSE,The man who had a map talked to the lady with the camera very politely.
1513174801,49de413ab45774f71b0bc07c2cd5c655,PictureAccept,209,1,f,81,Pick a picture,2,1,1928,
1513174801,49de413ab45774f71b0bc07c2cd5c655,DashedSentence,100,0,exp1-4,23,1,After the mother washed%2C the child in the house watched the television.,4798,FALSE,After the mother washed%2C the child in the house watched the television.
1513174801,49de413ab45774f71b0bc07c2cd5c655,PictureAccept,100,1,exp1-4,23,Pick a picture,2,1,1782,
1513174801,49de413ab45774f71b0bc07c2cd5c655,DashedSentence,233,0,f,105,1,The lady who hated accessories saw her boyfriend wearing the camera.,5518,FALSE,The lady who hated accessories saw her boyfriend wearing the camera.
1513174801,49de413ab45774f71b0bc07c2cd5c655,PictureAccept,233,1,f,105,Pick a picture,1,1,1315,
1513174801,49de413ab45774f71b0bc07c2cd5c655,DashedSentence,85,0,exp1-1,20,1,After the parents kissed their child in the bedroom ate some biscuits.,2343,FALSE,After the parents kissed their child in the bedroom ate some biscuits.
1513174801,49de413ab45774f71b0bc07c2cd5c655,PictureAccept,85,1,exp1-1,20,Pick a picture,1,0,3597,
1513174801,49de413ab45774f71b0bc07c2cd5c655,DashedSentence,218,0,f,90,1,The man painted the truck even though he was asked to paint the wall.,2978,FALSE,The man painted the truck even though he was asked to paint the wall.
1513174801,49de413ab45774f71b0bc07c2cd5c655,PictureAccept,218,1,f,90,Pick a picture,1,1,2631,
1513174801,49de413ab45774f71b0bc07c2cd5c655,DashedSentence,111,0,exp2-1,27,1,The lady looked at the bench which the workman moved very slowly from during lunch.,6155,FALSE,The lady looked at the bench which the workman moved very slowly from during lunch.
1513174801,49de413ab45774f71b0bc07c2cd5c655,PictureAccept,111,1,exp2-1,27,Pick a picture,2,1,3304,
1513174801,49de413ab45774f71b0bc07c2cd5c655,DashedSentence,205,0,f,77,1,The girl said that the boy hit her suddenly in the living room.,4744,FALSE,The girl said that the boy hit her suddenly in the living room.
1513174801,49de413ab45774f71b0bc07c2cd5c655,PictureAccept,205,1,f,77,Pick a picture,2,1,2127,
1513174801,49de413ab45774f71b0bc07c2cd5c655,DashedSentence,173,0,exp3-1,50,1,Alex looked at the cake which the grandmother baked the bread rolls beside late at night.,6843,FALSE,Alex looked at the cake which the grandmother baked the bread rolls beside late at night.
1513174801,49de413ab45774f71b0bc07c2cd5c655,PictureAccept,173,1,exp3-1,50,Pick a picture,1,1,2837,
1513174801,49de413ab45774f71b0bc07c2cd5c655,DashedSentence,225,0,f,97,1,The child played by rolling just one ball near the house.,2845,FALSE,The child played by rolling just one ball near the house.
1513174801,49de413ab45774f71b0bc07c2cd5c655,PictureAccept,225,1,f,97,Pick a picture,1,1,1559,
1513174801,49de413ab45774f71b0bc07c2cd5c655,DashedSentence,47,0,exp1-3,10,1,After the parents kissed their son in the dining room ate some bread.,3571,FALSE,After the parents kissed their son in the dining room ate some bread.
1513174801,49de413ab45774f71b0bc07c2cd5c655,PictureAccept,47,1,exp1-3,10,Pick a picture,1,1,1620,
1513174801,49de413ab45774f71b0bc07c2cd5c655,DashedSentence,203,0,f,75,1,The boy saw the mouse was chased by the cat very quickly in the street.,5736,FALSE,The boy saw the mouse was chased by the cat very quickly in the street.
1513174801,49de413ab45774f71b0bc07c2cd5c655,PictureAccept,203,1,f,75,Pick a picture,2,1,3753,
1513174801,49de413ab45774f71b0bc07c2cd5c655,DashedSentence,52,0,exp1-4,11,1,When the two students hugged%2C the teacher at the graduation ceremony cried very happily.,3567,FALSE,When the two students hugged%2C the teacher at the graduation ceremony cried very happily.
1513174801,49de413ab45774f71b0bc07c2cd5c655,PictureAccept,52,1,exp1-4,11,Pick a picture,1,1,6193,
1513174801,49de413ab45774f71b0bc07c2cd5c655,DashedSentence,226,0,f,98,1,The boy dropped the coffee cup in the room after reading the book.,7300,FALSE,The boy dropped the coffee cup in the room after reading the book.
1513174801,49de413ab45774f71b0bc07c2cd5c655,PictureAccept,226,1,f,98,Pick a picture,1,1,1849,
1513174801,49de413ab45774f71b0bc07c2cd5c655,DashedSentence,137,0,exp2-3,35,1,The reporter watched the ship which the sniper shot very carefully during the battle.,4838,FALSE,The reporter watched the ship which the sniper shot very carefully during the battle.
1513174801,49de413ab45774f71b0bc07c2cd5c655,PictureAccept,137,1,exp2-3,35,Pick a picture,2,1,2986,
1513174801,49de413ab45774f71b0bc07c2cd5c655,DashedSentence,199,0,f,71,1,The boy picked up the key in the room very quickly this morning.,9165,FALSE,The boy picked up the key in the room very quickly this morning.
1513174801,49de413ab45774f71b0bc07c2cd5c655,PictureAccept,199,1,f,71,Pick a picture,2,1,2262,
1513174801,49de413ab45774f71b0bc07c2cd5c655,DashedSentence,156,0,exp2-1,42,1,The lady saw the horse which the owner washed very quickly near later that morning.,7427,FALSE,The lady saw the horse which the owner washed very quickly near later that morning.
1513174801,49de413ab45774f71b0bc07c2cd5c655,PictureAccept,156,1,exp2-1,42,Pick a picture,2,0,4273,
1513174801,49de413ab45774f71b0bc07c2cd5c655,DashedSentence,201,0,f,73,1,The grandmother who loved flowers watered the tree in the garden.,6096,FALSE,The grandmother who loved flowers watered the tree in the garden.
1513174801,49de413ab45774f71b0bc07c2cd5c655,PictureAccept,201,1,f,73,Pick a picture,2,1,2180,
1513174801,49de413ab45774f71b0bc07c2cd5c655,DashedSentence,106,0,exp2-2,25,1,The cameraman saw the helicopter from which the soldier attacked very swiftly during the war.,6847,FALSE,The cameraman saw the helicopter from which the soldier attacked very swiftly during the war.
1513174801,49de413ab45774f71b0bc07c2cd5c655,PictureAccept,106,1,exp2-2,25,Pick a picture,2,1,5344,
1513174801,49de413ab45774f71b0bc07c2cd5c655,DashedSentence,213,0,f,85,1,The son bit the sandwich while his mother took a nap.,3219,FALSE,The son bit the sandwich while his mother took a nap.
1513174801,49de413ab45774f71b0bc07c2cd5c655,PictureAccept,213,1,f,85,Pick a picture,1,1,2086,
1513174801,49de413ab45774f71b0bc07c2cd5c655,DashedSentence,20,0,exp1-4,3,1,After the bear scratched%2C the lion in the forest climbed the tree.,3450,FALSE,After the bear scratched%2C the lion in the forest climbed the tree.
1513174801,49de413ab45774f71b0bc07c2cd5c655,PictureAccept,20,1,exp1-4,3,Pick a picture,1,1,4138,
1513174801,49de413ab45774f71b0bc07c2cd5c655,DashedSentence,190,0,f,62,1,The visitor saw the shark which was swimming very quickly in the aquarium.,3712,FALSE,The visitor saw the shark which was swimming very quickly in the aquarium.
1513174801,49de413ab45774f71b0bc07c2cd5c655,PictureAccept,190,1,f,62,Pick a picture,2,1,2158,
1513174801,49de413ab45774f71b0bc07c2cd5c655,DashedSentence,165,0,exp3-1,46,1,Luke saw the flower which the girl drew the tree near very happily.,3959,FALSE,Luke saw the flower which the girl drew the tree near very happily.
1513174801,49de413ab45774f71b0bc07c2cd5c655,PictureAccept,165,1,exp3-1,46,Pick a picture,1,0,1956,
1513174801,49de413ab45774f71b0bc07c2cd5c655,DashedSentence,193,0,f,65,1,The father saw that some apples were on the shelf.,1779,FALSE,The father saw that some apples were on the shelf.
1513174801,49de413ab45774f71b0bc07c2cd5c655,PictureAccept,193,1,f,65,Pick a picture,2,1,1365,
1513174801,49de413ab45774f71b0bc07c2cd5c655,DashedSentence,69,0,exp1-1,16,1,After the two girls hugged their father at the station drank some lemonade.,4000,FALSE,After the two girls hugged their father at the station drank some lemonade.
1513174801,49de413ab45774f71b0bc07c2cd5c655,PictureAccept,69,1,exp1-1,16,Pick a picture,2,1,2364,
1513174801,49de413ab45774f71b0bc07c2cd5c655,DashedSentence,207,0,f,79,1,The horse was near the rabbit which David patted in the morning.,4919,FALSE,The horse was near the rabbit which David patted in the morning.
1513174801,49de413ab45774f71b0bc07c2cd5c655,PictureAccept,207,1,f,79,Pick a picture,2,1,5794,
1513174801,49de413ab45774f71b0bc07c2cd5c655,DashedSentence,53,0,exp1-1,12,1,After the nurse washed the child in the hospital sat on the chair.,3919,FALSE,After the nurse washed the child in the hospital sat on the chair.
1513174801,49de413ab45774f71b0bc07c2cd5c655,PictureAccept,53,1,exp1-1,12,Pick a picture,2,0,3019,
1513174801,49de413ab45774f71b0bc07c2cd5c655,DashedSentence,215,0,f,87,1,Tom cleaned the towel while his girlfriend slept at the desk.,5083,FALSE,Tom cleaned the towel while his girlfriend slept at the desk.
1513174801,49de413ab45774f71b0bc07c2cd5c655,PictureAccept,215,1,f,87,Pick a picture,1,1,3464,
1513174801,49de413ab45774f71b0bc07c2cd5c655,DashedSentence,151,0,exp2-2,40,1,The lady saw the bus from which the spy watched completely silently during the evening.,6508,FALSE,The lady saw the bus from which the spy watched completely silently during the evening.
1513174801,49de413ab45774f71b0bc07c2cd5c655,PictureAccept,151,1,exp2-2,40,Pick a picture,1,1,2669,
1513174801,49de413ab45774f71b0bc07c2cd5c655,DashedSentence,206,0,f,78,1,The child heard that the grandmother kissed the grandfather before going to sleep.,4893,FALSE,The child heard that the grandmother kissed the grandfather before going to sleep.
1513174801,49de413ab45774f71b0bc07c2cd5c655,PictureAccept,206,1,f,78,Pick a picture,2,1,3355,
1513174801,49de413ab45774f71b0bc07c2cd5c655,DashedSentence,172,0,exp3-2,49,1,The nephew saw the door beside which the mother locked the suitcase before sleeping.,10719,FALSE,The nephew saw the door beside which the mother locked the suitcase before sleeping.
1513174801,49de413ab45774f71b0bc07c2cd5c655,PictureAccept,172,1,exp3-2,49,Pick a picture,2,0,3370,
1513174801,49de413ab45774f71b0bc07c2cd5c655,DashedSentence,223,0,f,95,1,The old woman made the cake very quickly while eating the bread rolls.,3648,FALSE,The old woman made the cake very quickly while eating the bread rolls.
1513174801,49de413ab45774f71b0bc07c2cd5c655,PictureAccept,223,1,f,95,Pick a picture,1,1,1595,
1513174801,49de413ab45774f71b0bc07c2cd5c655,DashedSentence,79,0,exp1-3,18,1,After the grandmother washed the boy at home listened to some music.,2508,FALSE,After the grandmother washed the boy at home listened to some music.
1513174801,49de413ab45774f71b0bc07c2cd5c655,PictureAccept,79,1,exp1-3,18,Pick a picture,1,0,3356,
1513174801,49de413ab45774f71b0bc07c2cd5c655,DashedSentence,236,0,f,108,1,The boy ate the fish while the lady ate the meat in the restaurant.,4778,FALSE,The boy ate the fish while the lady ate the meat in the restaurant.
1513174801,49de413ab45774f71b0bc07c2cd5c655,PictureAccept,236,1,f,108,Pick a picture,1,1,2377,
1513174801,49de413ab45774f71b0bc07c2cd5c655,DashedSentence,133,0,exp2-2,34,1,The criminal noticed the car from which the guard watched very carefully during the evening.,6732,FALSE,The criminal noticed the car from which the guard watched very carefully during the evening.
1513174801,49de413ab45774f71b0bc07c2cd5c655,PictureAccept,133,1,exp2-2,34,Pick a picture,1,1,2156,
1513174801,49de413ab45774f71b0bc07c2cd5c655,DashedSentence,220,0,f,92,1,The child threw the ball very quickly in the small park.,1752,FALSE,The child threw the ball very quickly in the small park.
1513174801,49de413ab45774f71b0bc07c2cd5c655,PictureAccept,220,1,f,92,Pick a picture,1,1,1973,
1513174801,49de413ab45774f71b0bc07c2cd5c655,DashedSentence,181,0,exp3-1,54,1,Monica saw the wall which the child touched the chair beside earlier that day.,2829,FALSE,Monica saw the wall which the child touched the chair beside earlier that day.
1513174801,49de413ab45774f71b0bc07c2cd5c655,PictureAccept,181,1,exp3-1,54,Pick a picture,1,1,2422,
1513174801,49de413ab45774f71b0bc07c2cd5c655,DashedSentence,235,0,f,107,1,The man who hated smoke drank a lot of beer last night.,5354,FALSE,The man who hated smoke drank a lot of beer last night.
1513174801,49de413ab45774f71b0bc07c2cd5c655,PictureAccept,235,1,f,107,Pick a picture,1,1,1679,
1513174801,49de413ab45774f71b0bc07c2cd5c655,DashedSentence,110,0,exp2-3,26,1,The teacher saw the chair which the student moved very quickly before class began.,2444,FALSE,The teacher saw the chair which the student moved very quickly before class began.
1513174801,49de413ab45774f71b0bc07c2cd5c655,PictureAccept,110,1,exp2-3,26,Pick a picture,1,1,2001,
1513174801,49de413ab45774f71b0bc07c2cd5c655,DashedSentence,187,0,f,59,1,The girl looked at the puddle to pass the time.,1596,FALSE,The girl looked at the puddle to pass the time.
1513174801,49de413ab45774f71b0bc07c2cd5c655,PictureAccept,187,1,f,59,Pick a picture,2,1,1324,
1513174801,49de413ab45774f71b0bc07c2cd5c655,DashedSentence,68,0,exp1-4,15,1,After the grandmother dressed%2C the child in the bedroom looked at the clock.,3334,FALSE,After the grandmother dressed%2C the child in the bedroom looked at the clock.
1513174801,49de413ab45774f71b0bc07c2cd5c655,PictureAccept,68,1,exp1-4,15,Pick a picture,2,1,1717,
1513174801,49de413ab45774f71b0bc07c2cd5c655,DashedSentence,221,0,f,93,1,Mark told his wife that there was just one apple on the shelf.,3268,FALSE,Mark told his wife that there was just one apple on the shelf.
1513174801,49de413ab45774f71b0bc07c2cd5c655,PictureAccept,221,1,f,93,Pick a picture,1,1,834,
1513174801,49de413ab45774f71b0bc07c2cd5c655,DashedSentence,95,0,exp1-3,22,1,After the dog scratched the boy in the house drank some milk.,3060,FALSE,After the dog scratched the boy in the house drank some milk.
1513174801,49de413ab45774f71b0bc07c2cd5c655,PictureAccept,95,1,exp1-3,22,Pick a picture,2,1,1782,
1513174801,49de413ab45774f71b0bc07c2cd5c655,DashedSentence,196,0,f,68,1,The shop assistant noticed that two cups were on the table in the store.,2483,FALSE,The shop assistant noticed that two cups were on the table in the store.
1513174801,49de413ab45774f71b0bc07c2cd5c655,PictureAccept,196,1,f,68,Pick a picture,2,1,1061,
1513174801,49de413ab45774f71b0bc07c2cd5c655,DashedSentence,168,0,exp3-2,47,1,Anna looked at the table near which the man carried the chair quite hastily.,9003,FALSE,Anna looked at the table near which the man carried the chair quite hastily.
1513174801,49de413ab45774f71b0bc07c2cd5c655,PictureAccept,168,1,exp3-2,47,Pick a picture,1,0,2288,
1513174801,49de413ab45774f71b0bc07c2cd5c655,DashedSentence,189,0,f,61,1,The boy kicked the ball which was near the tree in the park.,2323,FALSE,The boy kicked the ball which was near the tree in the park.
1513174801,49de413ab45774f71b0bc07c2cd5c655,PictureAccept,189,1,f,61,Pick a picture,2,1,1453,
1513174801,49de413ab45774f71b0bc07c2cd5c655,DashedSentence,176,0,exp3-2,51,1,The pilot landed the airplane near which the tourist watched the balloon late at night.,6672,FALSE,The pilot landed the airplane near which the tourist watched the balloon late at night.
1513174801,49de413ab45774f71b0bc07c2cd5c655,PictureAccept,176,1,exp3-2,51,Pick a picture,2,0,2435,
1513174801,49de413ab45774f71b0bc07c2cd5c655,DashedSentence,208,0,f,80,1,The policeman said that he met the woman with glasses last night.,3902,FALSE,The policeman said that he met the woman with glasses last night.
1513174801,49de413ab45774f71b0bc07c2cd5c655,PictureAccept,208,1,f,80,Pick a picture,2,1,1002,
1513174801,49de413ab45774f71b0bc07c2cd5c655,DashedSentence,169,0,exp3-1,48,1,Katie saw the window which the boy broke the toy beside during the weekend.,4605,FALSE,Katie saw the window which the boy broke the toy beside during the weekend.
1513174801,49de413ab45774f71b0bc07c2cd5c655,PictureAccept,169,1,exp3-1,48,Pick a picture,2,1,3699,
1513174801,49de413ab45774f71b0bc07c2cd5c655,DashedSentence,197,0,f,69,1,Amelia stood by the wall while the room was cleaned that day.,3731,FALSE,Amelia stood by the wall while the room was cleaned that day.
1513174801,49de413ab45774f71b0bc07c2cd5c655,PictureAccept,197,1,f,69,Pick a picture,2,1,1139,
1513174801,49de413ab45774f71b0bc07c2cd5c655,DashedSentence,42,0,exp1-2,9,1,After the lady woke up%2C her husband in the apartment drank some coffee.,2771,FALSE,After the lady woke up%2C her husband in the apartment drank some coffee.
1513174801,49de413ab45774f71b0bc07c2cd5c655,PictureAccept,42,1,exp1-2,9,Pick a picture,1,1,3087,
1513174801,49de413ab45774f71b0bc07c2cd5c655,DashedSentence,184,0,f,56,1,When the man ate the spaghetti at lunch the waitress politely served another customer.,5839,FALSE,When the man ate the spaghetti at lunch the waitress politely served another customer.
1513174801,49de413ab45774f71b0bc07c2cd5c655,PictureAccept,184,1,f,56,Pick a picture,2,1,1576,
1513174801,49de413ab45774f71b0bc07c2cd5c655,DashedSentence,84,0,exp1-4,19,1,After the lady woke up%2C her boyfriend in the flat drank a cup of tea.,4341,FALSE,After the lady woke up%2C her boyfriend in the flat drank a cup of tea.
1513174801,49de413ab45774f71b0bc07c2cd5c655,PictureAccept,84,1,exp1-4,19,Pick a picture,2,1,1116,
1513174801,49de413ab45774f71b0bc07c2cd5c655,DashedSentence,216,0,f,88,1,The child in the house saw the cat which was sleeping very quietly.,3106,FALSE,The child in the house saw the cat which was sleeping very quietly.
1513174801,49de413ab45774f71b0bc07c2cd5c655,PictureAccept,216,1,f,88,Pick a picture,1,1,1750,
1513174801,49de413ab45774f71b0bc07c2cd5c655,DashedSentence,115,0,exp2-2,28,1,Kevin saw the letter beside which the candle burnt very quickly last night.,3121,FALSE,Kevin saw the letter beside which the candle burnt very quickly last night.
1513174801,49de413ab45774f71b0bc07c2cd5c655,PictureAccept,115,1,exp2-2,28,Pick a picture,2,1,1757,
1513174801,49de413ab45774f71b0bc07c2cd5c655,DashedSentence,185,0,f,57,1,When Jacob opened the door%2C the dog ran out very quickly.,2477,FALSE,When Jacob opened the door%2C the dog ran out very quickly.
1513174801,49de413ab45774f71b0bc07c2cd5c655,PictureAccept,185,1,f,57,Pick a picture,2,1,1837,
1513174801,49de413ab45774f71b0bc07c2cd5c655,DashedSentence,74,0,exp1-2,17,1,After the cat scratched%2C the girl in the garden sat on the blanket.,2433,FALSE,After the cat scratched%2C the girl in the garden sat on the blanket.
1513174801,49de413ab45774f71b0bc07c2cd5c655,PictureAccept,74,1,exp1-2,17,Pick a picture,1,0,11338,
1513174801,49de413ab45774f71b0bc07c2cd5c655,DashedSentence,227,0,f,99,1,George put the headphones on the chair and went out for dinner.,4572,FALSE,George put the headphones on the chair and went out for dinner.
1513174801,49de413ab45774f71b0bc07c2cd5c655,PictureAccept,227,1,f,99,Pick a picture,1,1,1115,
1513174801,49de413ab45774f71b0bc07c2cd5c655,DashedSentence,142,0,exp2-2,37,1,The taxi driver saw the newspaper near which the cigarette burnt very slowly during lunch.,3226,FALSE,The taxi driver saw the newspaper near which the cigarette burnt very slowly during lunch.
1513174801,49de413ab45774f71b0bc07c2cd5c655,PictureAccept,142,1,exp2-2,37,Pick a picture,1,1,1766,
1513174801,49de413ab45774f71b0bc07c2cd5c655,DashedSentence,194,0,f,66,1,The mother held just one tomato in the kitchen.,2097,FALSE,The mother held just one tomato in the kitchen.
1513174801,49de413ab45774f71b0bc07c2cd5c655,PictureAccept,194,1,f,66,Pick a picture,2,1,1536,
1513174801,49de413ab45774f71b0bc07c2cd5c655,DashedSentence,37,0,exp1-1,8,1,After Emily dressed the boy in the house watched the television.,1659,FALSE,After Emily dressed the boy in the house watched the television.
1513174801,49de413ab45774f71b0bc07c2cd5c655,PictureAccept,37,1,exp1-1,8,Pick a picture,2,0,2358,
1513174801,49de413ab45774f71b0bc07c2cd5c655,DashedSentence,211,0,f,83,1,The woman who had an umbrella saw the policeman with the pistol.,3462,FALSE,The woman who had an umbrella saw the policeman with the pistol.
1513174801,49de413ab45774f71b0bc07c2cd5c655,PictureAccept,211,1,f,83,Pick a picture,1,1,1578,
1513174801,49de413ab45774f71b0bc07c2cd5c655,DashedSentence,129,0,exp2-1,33,1,Elisa noticed the truck which the policeman watched very quietly from earlier that morning.,7251,FALSE,Elisa noticed the truck which the policeman watched very quietly from earlier that morning.
1513174801,49de413ab45774f71b0bc07c2cd5c655,PictureAccept,129,1,exp2-1,33,Pick a picture,2,1,2655,
1513174801,49de413ab45774f71b0bc07c2cd5c655,DashedSentence,191,0,f,63,1,Lily looked for the headphones which were under the chair this morning.,2584,FALSE,Lily looked for the headphones which were under the chair this morning.
1513174801,49de413ab45774f71b0bc07c2cd5c655,PictureAccept,191,1,f,63,Pick a picture,2,1,1158,
1513174801,49de413ab45774f71b0bc07c2cd5c655,DashedSentence,90,0,exp1-2,21,1,After the old lady dressed%2C the boy in the bedroom checked the time.,3336,FALSE,After the old lady dressed%2C the boy in the bedroom checked the time.
1513174801,49de413ab45774f71b0bc07c2cd5c655,PictureAccept,90,1,exp1-2,21,Pick a picture,2,1,2247,
1513174801,49de413ab45774f71b0bc07c2cd5c655,DashedSentence,231,0,f,103,1,The boy who hid behind the tree saw Linda watering the flower.,2957,FALSE,The boy who hid behind the tree saw Linda watering the flower.
1513174801,49de413ab45774f71b0bc07c2cd5c655,PictureAccept,231,1,f,103,Pick a picture,1,1,1376,
1513174801,49de413ab45774f71b0bc07c2cd5c655,DashedSentence,180,0,exp3-2,53,1,Sophia saw the cup beside which the boy dropped the book that day.,5804,FALSE,Sophia saw the cup beside which the boy dropped the book that day.
1513174801,49de413ab45774f71b0bc07c2cd5c655,PictureAccept,180,1,exp3-2,53,Pick a picture,1,1,3170,
1513174801,49de413ab45774f71b0bc07c2cd5c655,DashedSentence,192,0,f,64,1,The customer saw the spoon which was on the plate in the restaurant.,2911,FALSE,The customer saw the spoon which was on the plate in the restaurant.
1513174801,49de413ab45774f71b0bc07c2cd5c655,PictureAccept,192,1,f,64,Pick a picture,2,1,1403,
1513174801,49de413ab45774f71b0bc07c2cd5c655,DashedSentence,120,0,exp2-1,30,1,The daughter saw the towel which the father washed very quickly near that morning.,5872,FALSE,The daughter saw the towel which the father washed very quickly near that morning.
1513174801,49de413ab45774f71b0bc07c2cd5c655,PictureAccept,120,1,exp2-1,30,Pick a picture,1,0,2083,
1513174801,49de413ab45774f71b0bc07c2cd5c655,DashedSentence,228,0,f,100,1,The mouse followed the cat which was walking on the road.,6585,FALSE,The mouse followed the cat which was walking on the road.
1513174801,49de413ab45774f71b0bc07c2cd5c655,PictureAccept,228,1,f,100,Pick a picture,1,1,1654,
1513174801,49de413ab45774f71b0bc07c2cd5c655,DashedSentence,146,0,exp2-3,38,1,The king saw the castle which the men attacked very bravely during the battle.,6006,FALSE,The king saw the castle which the men attacked very bravely during the battle.
1513174801,49de413ab45774f71b0bc07c2cd5c655,PictureAccept,146,1,exp2-3,38,Pick a picture,2,1,2863,
1513174801,49de413ab45774f71b0bc07c2cd5c655,DashedSentence,195,0,f,67,1,The brother saw three balls rolling down the slope very slowly near the house.,7354,FALSE,The brother saw three balls rolling down the slope very slowly near the house.
1513174801,49de413ab45774f71b0bc07c2cd5c655,PictureAccept,195,1,f,67,Pick a picture,2,1,829,
1513174801,49de413ab45774f71b0bc07c2cd5c655,DashedSentence,161,0,exp3-1,44,1,The girl looked at the truck which the neighbour washed the bike beside last night.,3346,FALSE,The girl looked at the truck which the neighbour washed the bike beside last night.
1513174801,49de413ab45774f71b0bc07c2cd5c655,PictureAccept,161,1,exp3-1,44,Pick a picture,2,1,2059,
1513174801,49de413ab45774f71b0bc07c2cd5c655,DashedSentence,212,0,f,84,1,The trendy student who had a cellphone walked by the old teacher with the textbook.,2800,FALSE,The trendy student who had a cellphone walked by the old teacher with the textbook.
1513174801,49de413ab45774f71b0bc07c2cd5c655,PictureAccept,212,1,f,84,Pick a picture,1,1,1256,
1513174801,49de413ab45774f71b0bc07c2cd5c655,DashedSentence,177,0,exp3-1,52,1,Jack found the bicycle which the mechanic repaired the car beside during the morning.,6410,FALSE,Jack found the bicycle which the mechanic repaired the car beside during the morning.
1513174801,49de413ab45774f71b0bc07c2cd5c655,PictureAccept,177,1,exp3-1,52,Pick a picture,1,1,1285,
1513174801,49de413ab45774f71b0bc07c2cd5c655,DashedSentence,186,0,f,58,1,While the dog sniffed the flower in the park%2C the child played with the ball quite happily.,4018,FALSE,While the dog sniffed the flower in the park%2C the child played with the ball quite happily.
1513174801,49de413ab45774f71b0bc07c2cd5c655,PictureAccept,186,1,f,58,Pick a picture,1,0,3577,
1513174801,49de413ab45774f71b0bc07c2cd5c655,DashedSentence,147,0,exp2-1,39,1,The captain noticed the ship which the enemy attacked very swiftly from during the war.,7433,FALSE,The captain noticed the ship which the enemy attacked very swiftly from during the war.
1513174801,49de413ab45774f71b0bc07c2cd5c655,PictureAccept,147,1,exp2-1,39,Pick a picture,1,1,2487,
1513174801,49de413ab45774f71b0bc07c2cd5c655,DashedSentence,198,0,f,70,1,Grace wore the skirt to the party in town last weekend.,4322,FALSE,Grace wore the skirt to the party in town last weekend.
1513174801,49de413ab45774f71b0bc07c2cd5c655,PictureAccept,198,1,f,70,Pick a picture,2,1,2272,
1513174801,49de413ab45774f71b0bc07c2cd5c655,DashedSentence,138,0,exp2-1,36,1,Rose saw the truck which the man shot very quickly from during the robbery.,6699,FALSE,Rose saw the truck which the man shot very quickly from during the robbery.
1513174801,49de413ab45774f71b0bc07c2cd5c655,PictureAccept,138,1,exp2-1,36,Pick a picture,1,1,2254,
1513174801,49de413ab45774f71b0bc07c2cd5c655,DashedSentence,224,0,f,96,1,The mother put just one tea cup on the table even though there were two guests.,7980,FALSE,The mother put just one tea cup on the table even though there were two guests.
1513174801,49de413ab45774f71b0bc07c2cd5c655,PictureAccept,224,1,f,96,Pick a picture,1,1,1475,
1513174801,49de413ab45774f71b0bc07c2cd5c655,DashedSentence,128,0,exp2-3,32,1,Ellie observed the dog which the neighbour walked really happily during the morning.,5102,FALSE,Ellie observed the dog which the neighbour walked really happily during the morning.
1513174801,49de413ab45774f71b0bc07c2cd5c655,PictureAccept,128,1,exp2-3,32,Pick a picture,1,1,4730,
1513174801,49de413ab45774f71b0bc07c2cd5c655,DashedSentence,200,0,f,72,1,The business man smoked while his wife ordered a beer.,2849,FALSE,The business man smoked while his wife ordered a beer.
1513174801,49de413ab45774f71b0bc07c2cd5c655,PictureAccept,200,1,f,72,Pick a picture,2,1,3253,
1513174801,49de413ab45774f71b0bc07c2cd5c655,DashedSentence,63,0,exp1-3,14,1,After the nurse woke up the patient in the hospital knocked on the door.,3152,FALSE,After the nurse woke up the patient in the hospital knocked on the door.
1513174801,49de413ab45774f71b0bc07c2cd5c655,PictureAccept,63,1,exp1-3,14,Pick a picture,2,1,5759,
1513174801,49de413ab45774f71b0bc07c2cd5c655,DashedSentence,204,0,f,76,1,The neighbour patted the cat which the dog licked in the garden.,5406,FALSE,The neighbour patted the cat which the dog licked in the garden.
1513174801,49de413ab45774f71b0bc07c2cd5c655,PictureAccept,204,1,f,76,Pick a picture,2,1,5166,
1513174801,49de413ab45774f71b0bc07c2cd5c655,DashedSentence,36,0,exp1-4,7,1,After the mouse scratched%2C the researcher in the university drank some water.,4455,FALSE,After the mouse scratched%2C the researcher in the university drank some water.
1513174801,49de413ab45774f71b0bc07c2cd5c655,PictureAccept,36,1,exp1-4,7,Pick a picture,1,1,1904,
1513174801,49de413ab45774f71b0bc07c2cd5c655,DashedSentence,230,0,f,102,1,The woman washed her hair very quickly while Edward had a nap.,4162,FALSE,The woman washed her hair very quickly while Edward had a nap.
1513174801,49de413ab45774f71b0bc07c2cd5c655,PictureAccept,230,1,f,102,Pick a picture,1,1,1461,
1513174801,49de413ab45774f71b0bc07c2cd5c655,DashedSentence,119,0,exp2-3,29,1,Jacob saw the desk which the lady moved quite carefully after writing an email.,8087,FALSE,Jacob saw the desk which the lady moved quite carefully after writing an email.
1513174801,49de413ab45774f71b0bc07c2cd5c655,PictureAccept,119,1,exp2-3,29,Pick a picture,1,1,1339,
1513174801,49de413ab45774f71b0bc07c2cd5c655,DashedSentence,234,0,f,106,1,The lady who liked the rabbit saw the man patting the horse.,2235,FALSE,The lady who liked the rabbit saw the man patting the horse.
1513174801,49de413ab45774f71b0bc07c2cd5c655,PictureAccept,234,1,f,106,Pick a picture,1,1,1319,
#,,,,,,,,,,,
# Results on Monday December 18 2017 11:24:44 UTC.,,,,,,,,,,,
# USER AGENT: Mozilla/5.0 (Macintosh; Intel Mac OS X 10_13_1) AppleWebKit/604.3.5 (KHTML, like Gecko) Version/11.0.1 Safari/604.3.5,,,,,,,,,,
# Design number was non-random = 2,,,,,,,,,,,
#,,,,,,,,,,,
# Columns below this comment are as follows:,,,,,,,,,,,
# 1. Time results were received.,,,,,,,,,,,
# 2. MD5 hash of participant's IP address.,,,,,,,,,,,
# 3. Controller name.,,,,,,,,,,,
# 4. Item number.,,,,,,,,,,,
# 5. Element number.,,,,,,,,,,,
# 6. Type.,,,,,,,,,,,
# 7. Group.,,,,,,,,,,,
# 8. Field name.,,,,,,,,,,,
# 9. Field value.,,,,,,,,,,,
1513596285,49de413ab45774f71b0bc07c2cd5c655,Form,3,0,intro,NULL,name,11,,,
1513596285,49de413ab45774f71b0bc07c2cd5c655,Form,3,0,intro,NULL,age,3,,,
1513596285,49de413ab45774f71b0bc07c2cd5c655,Form,3,0,intro,NULL,_REACTION_TIME_,291076,,,
# The lines below this comment are in groups of 2.,,,,,,,,,,,
# The formats of the lines in each of these groups are as follows:,,,,,,,,,,,
#,,,,,,,,,,,
# Line 1:,,,,,,,,,,,
#     Col. 1: Time results were received.,,,,,,,,,,,
#     Col. 2: MD5 hash of participant's IP address.,,,,,,,,,,,
#     Col. 3: Controller name.,,,,,,,,,,,
#     Col. 4: Item number.,,,,,,,,,,,
#     Col. 5: Element number.,,,,,,,,,,,
#     Col. 6: Type.,,,,,,,,,,,
#     Col. 7: Group.,,,,,,,,,,,
#     Col. 8: Word number.,,,,,,,,,,,
#     Col. 9: Word.,,,,,,,,,,,
#     Col. 10: Reading time.,,,,,,,,,,,
#     Col. 11: Newline?,,,,,,,,,,,
#     Col. 12: Sentence (or sentence MD5).,,,,,,,,,,,
# Line 2:,,,,,,,,,,,
#     Col. 1: Time results were received.,,,,,,,,,,,
#     Col. 2: MD5 hash of participant's IP address.,,,,,,,,,,,
#     Col. 3: Controller name.,,,,,,,,,,,
#     Col. 4: Item number.,,,,,,,,,,,
#     Col. 5: Element number.,,,,,,,,,,,
#     Col. 6: Type.,,,,,,,,,,,
#     Col. 7: Group.,,,,,,,,,,,
#     Col. 8: Sentence.,,,,,,,,,,,
#     Col. 9: Chosen picture (Starting from 1).,,,,,,,,,,,
#     Col. 10: Whether or not answer was correct (NULL if N/A).,,,,,,,,,,,
#     Col. 11: Time taken to answer.,,,,,,,,,,,
1513596285,49de413ab45774f71b0bc07c2cd5c655,DashedSentence,5,0,practice,NULL,1,Someone looked at the airplane flying in the sky yesterday morning.,3604,FALSE,Someone looked at the airplane flying in the sky yesterday morning.
1513596285,49de413ab45774f71b0bc07c2cd5c655,PictureAccept,5,1,practice,NULL,Pick a picture,1,1,2202,
1513596285,49de413ab45774f71b0bc07c2cd5c655,DashedSentence,6,0,practice,NULL,1,Alice noticed that there was a puddle in front of her.,3148,FALSE,Alice noticed that there was a puddle in front of her.
1513596285,49de413ab45774f71b0bc07c2cd5c655,PictureAccept,6,1,practice,NULL,Pick a picture,2,0,2804,
1513596285,49de413ab45774f71b0bc07c2cd5c655,DashedSentence,7,0,practice,NULL,1,Two students with school uniforms were walking slowly in the classroom,6574,FALSE,Two students with school uniforms were walking slowly in the classroom
1513596285,49de413ab45774f71b0bc07c2cd5c655,PictureAccept,7,1,practice,NULL,Pick a picture,2,0,2764,
1513596285,49de413ab45774f71b0bc07c2cd5c655,DashedSentence,8,0,practice,NULL,1,There were more than one apple on the shelf.,2998,FALSE,There were more than one apple on the shelf.
1513596285,49de413ab45774f71b0bc07c2cd5c655,PictureAccept,8,1,practice,NULL,Pick a picture,2,0,1437,
1513596285,49de413ab45774f71b0bc07c2cd5c655,DashedSentence,229,0,f,101,1,The bear attacked by the lion climbed the tree very quickly.,4950,FALSE,The bear attacked by the lion climbed the tree very quickly.
1513596285,49de413ab45774f71b0bc07c2cd5c655,PictureAccept,229,1,f,101,Pick a picture,1,1,7187,
1513596285,49de413ab45774f71b0bc07c2cd5c655,DashedSentence,166,0,exp3-2,46,1,Luke saw the flower near which the girl drew the tree very happily.,6259,FALSE,Luke saw the flower near which the girl drew the tree very happily.
1513596285,49de413ab45774f71b0bc07c2cd5c655,PictureAccept,166,1,exp3-2,46,Pick a picture,1,0,4381,
1513596285,49de413ab45774f71b0bc07c2cd5c655,DashedSentence,221,0,f,93,1,Mark told his wife that there was just one apple on the shelf.,4540,FALSE,Mark told his wife that there was just one apple on the shelf.
1513596285,49de413ab45774f71b0bc07c2cd5c655,PictureAccept,221,1,f,93,Pick a picture,1,1,1388,
1513596285,49de413ab45774f71b0bc07c2cd5c655,DashedSentence,117,0,exp2-1,29,1,Jacob saw the desk which the lady moved quite carefully from after writing an email.,9906,FALSE,Jacob saw the desk which the lady moved quite carefully from after writing an email.
1513596285,49de413ab45774f71b0bc07c2cd5c655,PictureAccept,117,1,exp2-1,29,Pick a picture,1,0,10664,
1513596285,49de413ab45774f71b0bc07c2cd5c655,DashedSentence,192,0,f,64,1,The customer saw the spoon which was on the plate in the restaurant.,3411,FALSE,The customer saw the spoon which was on the plate in the restaurant.
1513596285,49de413ab45774f71b0bc07c2cd5c655,PictureAccept,192,1,f,64,Pick a picture,2,1,3889,
1513596285,49de413ab45774f71b0bc07c2cd5c655,DashedSentence,144,0,exp2-1,38,1,The king saw the castle which the men attacked very bravely from during the battle.,6374,FALSE,The king saw the castle which the men attacked very bravely from during the battle.
1513596285,49de413ab45774f71b0bc07c2cd5c655,PictureAccept,144,1,exp2-1,38,Pick a picture,1,1,5430,
1513596285,49de413ab45774f71b0bc07c2cd5c655,DashedSentence,196,0,f,68,1,The shop assistant noticed that two cups were on the table in the store.,5845,FALSE,The shop assistant noticed that two cups were on the table in the store.
1513596285,49de413ab45774f71b0bc07c2cd5c655,PictureAccept,196,1,f,68,Pick a picture,2,1,1083,
1513596285,49de413ab45774f71b0bc07c2cd5c655,DashedSentence,174,0,exp3-2,50,1,Alex looked at the cake beside which the grandmother baked the bread rolls late at night.,5287,FALSE,Alex looked at the cake beside which the grandmother baked the bread rolls late at night.
1513596285,49de413ab45774f71b0bc07c2cd5c655,PictureAccept,174,1,exp3-2,50,Pick a picture,1,1,4796,
1513596285,49de413ab45774f71b0bc07c2cd5c655,DashedSentence,206,0,f,78,1,The child heard that the grandmother kissed the grandfather before going to sleep.,6844,FALSE,The child heard that the grandmother kissed the grandfather before going to sleep.
1513596285,49de413ab45774f71b0bc07c2cd5c655,PictureAccept,206,1,f,78,Pick a picture,2,1,3174,
1513596285,49de413ab45774f71b0bc07c2cd5c655,DashedSentence,16,0,exp1-4,2,1,After the woman dressed%2C the boy in the living room read a book.,2939,FALSE,After the woman dressed%2C the boy in the living room read a book.
1513596285,49de413ab45774f71b0bc07c2cd5c655,PictureAccept,16,1,exp1-4,2,Pick a picture,1,1,1766,
1513596285,49de413ab45774f71b0bc07c2cd5c655,DashedSentence,205,0,f,77,1,The girl said that the boy hit her suddenly in the living room.,5310,FALSE,The girl said that the boy hit her suddenly in the living room.
1513596285,49de413ab45774f71b0bc07c2cd5c655,PictureAccept,205,1,f,77,Pick a picture,2,1,2586,
1513596285,49de413ab45774f71b0bc07c2cd5c655,DashedSentence,171,0,exp3-1,49,1,The nephew saw the door which the mother locked the suitcase beside before sleeping.,16554,FALSE,The nephew saw the door which the mother locked the suitcase beside before sleeping.
1513596285,49de413ab45774f71b0bc07c2cd5c655,PictureAccept,171,1,exp3-1,49,Pick a picture,1,1,3022,
1513596285,49de413ab45774f71b0bc07c2cd5c655,DashedSentence,225,0,f,97,1,The child played by rolling just one ball near the house.,5199,FALSE,The child played by rolling just one ball near the house.
1513596285,49de413ab45774f71b0bc07c2cd5c655,PictureAccept,225,1,f,97,Pick a picture,1,1,1242,
1513596285,49de413ab45774f71b0bc07c2cd5c655,DashedSentence,159,0,exp3-1,43,1,The teacher saw the apple which the student drew the banana beside earlier that day.,8308,FALSE,The teacher saw the apple which the student drew the banana beside earlier that day.
1513596285,49de413ab45774f71b0bc07c2cd5c655,PictureAccept,159,1,exp3-1,43,Pick a picture,1,0,12223,
1513596285,49de413ab45774f71b0bc07c2cd5c655,DashedSentence,199,0,f,71,1,The boy picked up the key in the room very quickly this morning.,7880,FALSE,The boy picked up the key in the room very quickly this morning.
1513596285,49de413ab45774f71b0bc07c2cd5c655,PictureAccept,199,1,f,71,Pick a picture,2,1,3932,
1513596285,49de413ab45774f71b0bc07c2cd5c655,DashedSentence,148,0,exp2-2,39,1,The captain noticed the ship from which the enemy attacked very swiftly during the war.,6089,FALSE,The captain noticed the ship from which the enemy attacked very swiftly during the war.
1513596285,49de413ab45774f71b0bc07c2cd5c655,PictureAccept,148,1,exp2-2,39,Pick a picture,2,0,6713,
1513596285,49de413ab45774f71b0bc07c2cd5c655,DashedSentence,197,0,f,69,1,Amelia stood by the wall while the room was cleaned that day.,4500,FALSE,Amelia stood by the wall while the room was cleaned that day.
1513596285,49de413ab45774f71b0bc07c2cd5c655,PictureAccept,197,1,f,69,Pick a picture,2,1,1519,
1513596285,49de413ab45774f71b0bc07c2cd5c655,DashedSentence,64,0,exp1-4,14,1,After the nurse woke up%2C the patient in the hospital knocked on the door.,3850,FALSE,After the nurse woke up%2C the patient in the hospital knocked on the door.
1513596285,49de413ab45774f71b0bc07c2cd5c655,PictureAccept,64,1,exp1-4,14,Pick a picture,2,1,2040,
1513596285,49de413ab45774f71b0bc07c2cd5c655,DashedSentence,215,0,f,87,1,Tom cleaned the towel while his girlfriend slept at the desk.,5596,FALSE,Tom cleaned the towel while his girlfriend slept at the desk.
1513596285,49de413ab45774f71b0bc07c2cd5c655,PictureAccept,215,1,f,87,Pick a picture,1,1,2864,
1513596285,49de413ab45774f71b0bc07c2cd5c655,DashedSentence,116,0,exp2-3,28,1,Kevin saw the letter which the candle burnt very quickly last night.,6475,FALSE,Kevin saw the letter which the candle burnt very quickly last night.
1513596285,49de413ab45774f71b0bc07c2cd5c655,PictureAccept,116,1,exp2-3,28,Pick a picture,1,1,1893,
1513596285,49de413ab45774f71b0bc07c2cd5c655,DashedSentence,195,0,f,67,1,The brother saw three balls rolling down the slope very slowly near the house.,5343,FALSE,The brother saw three balls rolling down the slope very slowly near the house.
1513596285,49de413ab45774f71b0bc07c2cd5c655,PictureAccept,195,1,f,67,Pick a picture,2,1,1282,
1513596285,49de413ab45774f71b0bc07c2cd5c655,DashedSentence,59,0,exp1-3,13,1,After the two brothers hugged their mother at the station ate some cookies.,5864,FALSE,After the two brothers hugged their mother at the station ate some cookies.
1513596285,49de413ab45774f71b0bc07c2cd5c655,PictureAccept,59,1,exp1-3,13,Pick a picture,2,1,1509,
1513596285,49de413ab45774f71b0bc07c2cd5c655,DashedSentence,185,0,f,57,1,When Jacob opened the door%2C the dog ran out very quickly.,9257,FALSE,When Jacob opened the door%2C the dog ran out very quickly.
1513596285,49de413ab45774f71b0bc07c2cd5c655,PictureAccept,185,1,f,57,Pick a picture,2,1,2562,
1513596285,49de413ab45774f71b0bc07c2cd5c655,DashedSentence,153,0,exp2-1,41,1,The commander saw the tank which the soldier shot very quickly from during the weekend.,9233,FALSE,The commander saw the tank which the soldier shot very quickly from during the weekend.
1513596285,49de413ab45774f71b0bc07c2cd5c655,PictureAccept,153,1,exp2-1,41,Pick a picture,1,1,3386,
1513596285,49de413ab45774f71b0bc07c2cd5c655,DashedSentence,220,0,f,92,1,The child threw the ball very quickly in the small park.,3321,FALSE,The child threw the ball very quickly in the small park.
1513596285,49de413ab45774f71b0bc07c2cd5c655,PictureAccept,220,1,f,92,Pick a picture,1,1,5294,
1513596285,49de413ab45774f71b0bc07c2cd5c655,DashedSentence,139,0,exp2-2,36,1,Rose saw the truck from which the man shot very quickly during the robbery.,6650,FALSE,Rose saw the truck from which the man shot very quickly during the robbery.
1513596285,49de413ab45774f71b0bc07c2cd5c655,PictureAccept,139,1,exp2-2,36,Pick a picture,1,1,2198,
1513596285,49de413ab45774f71b0bc07c2cd5c655,DashedSentence,188,0,f,60,1,The decorator painted the wall which was near the truck very quickly.,12447,FALSE,The decorator painted the wall which was near the truck very quickly.
1513596285,49de413ab45774f71b0bc07c2cd5c655,PictureAccept,188,1,f,60,Pick a picture,2,1,2991,
1513596285,49de413ab45774f71b0bc07c2cd5c655,DashedSentence,48,0,exp1-4,10,1,After the parents kissed%2C their son in the dining room ate some bread.,4003,FALSE,After the parents kissed%2C their son in the dining room ate some bread.
1513596285,49de413ab45774f71b0bc07c2cd5c655,PictureAccept,48,1,exp1-4,10,Pick a picture,1,1,3421,
1513596285,49de413ab45774f71b0bc07c2cd5c655,DashedSentence,208,0,f,80,1,The policeman said that he met the woman with glasses last night.,4546,FALSE,The policeman said that he met the woman with glasses last night.
1513596285,49de413ab45774f71b0bc07c2cd5c655,PictureAccept,208,1,f,80,Pick a picture,2,1,1630,
1513596285,49de413ab45774f71b0bc07c2cd5c655,DashedSentence,43,0,exp1-3,9,1,After the lady woke up her husband in the apartment drank some coffee.,8632,FALSE,After the lady woke up her husband in the apartment drank some coffee.
1513596285,49de413ab45774f71b0bc07c2cd5c655,PictureAccept,43,1,exp1-3,9,Pick a picture,1,1,1542,
1513596285,49de413ab45774f71b0bc07c2cd5c655,DashedSentence,193,0,f,65,1,The father saw that some apples were on the shelf.,2646,FALSE,The father saw that some apples were on the shelf.
1513596285,49de413ab45774f71b0bc07c2cd5c655,PictureAccept,193,1,f,65,Pick a picture,2,1,1286,
1513596285,49de413ab45774f71b0bc07c2cd5c655,DashedSentence,130,0,exp2-2,33,1,Elisa noticed the truck from which the policeman watched very quietly earlier that morning.,6359,FALSE,Elisa noticed the truck from which the policeman watched very quietly earlier that morning.
1513596285,49de413ab45774f71b0bc07c2cd5c655,PictureAccept,130,1,exp2-2,33,Pick a picture,2,1,1441,
1513596285,49de413ab45774f71b0bc07c2cd5c655,DashedSentence,233,0,f,105,1,The lady who hated accessories saw her boyfriend wearing the camera.,5198,FALSE,The lady who hated accessories saw her boyfriend wearing the camera.
1513596285,49de413ab45774f71b0bc07c2cd5c655,PictureAccept,233,1,f,105,Pick a picture,2,0,4094,
1513596285,49de413ab45774f71b0bc07c2cd5c655,DashedSentence,126,0,exp2-1,32,1,Ellie observed the dog which the neighbour walked really happily towards during the morning.,6874,FALSE,Ellie observed the dog which the neighbour walked really happily towards during the morning.
1513596285,49de413ab45774f71b0bc07c2cd5c655,PictureAccept,126,1,exp2-1,32,Pick a picture,1,0,2191,
1513596285,49de413ab45774f71b0bc07c2cd5c655,DashedSentence,218,0,f,90,1,The man painted the truck even though he was asked to paint the wall.,4406,FALSE,The man painted the truck even though he was asked to paint the wall.
1513596285,49de413ab45774f71b0bc07c2cd5c655,PictureAccept,218,1,f,90,Pick a picture,1,1,1983,
1513596285,49de413ab45774f71b0bc07c2cd5c655,DashedSentence,32,0,exp1-4,6,1,After the parents kissed%2C the child in the kitchen ate some chocolate.,4920,FALSE,After the parents kissed%2C the child in the kitchen ate some chocolate.
1513596285,49de413ab45774f71b0bc07c2cd5c655,PictureAccept,32,1,exp1-4,6,Pick a picture,1,1,1445,
1513596285,49de413ab45774f71b0bc07c2cd5c655,DashedSentence,203,0,f,75,1,The boy saw the mouse was chased by the cat very quickly in the street.,6390,FALSE,The boy saw the mouse was chased by the cat very quickly in the street.
1513596285,49de413ab45774f71b0bc07c2cd5c655,PictureAccept,203,1,f,75,Pick a picture,2,1,3690,
1513596285,49de413ab45774f71b0bc07c2cd5c655,DashedSentence,86,0,exp1-2,20,1,After the parents kissed%2C their child in the bedroom ate some biscuits.,3257,FALSE,After the parents kissed%2C their child in the bedroom ate some biscuits.
1513596285,49de413ab45774f71b0bc07c2cd5c655,PictureAccept,86,1,exp1-2,20,Pick a picture,2,1,2474,
1513596285,49de413ab45774f71b0bc07c2cd5c655,DashedSentence,194,0,f,66,1,The mother held just one tomato in the kitchen.,1815,FALSE,The mother held just one tomato in the kitchen.
1513596285,49de413ab45774f71b0bc07c2cd5c655,PictureAccept,194,1,f,66,Pick a picture,2,1,992,
1513596285,49de413ab45774f71b0bc07c2cd5c655,DashedSentence,97,0,exp1-1,23,1,After the mother washed the child in the house watched the television.,7268,FALSE,After the mother washed the child in the house watched the television.
1513596285,49de413ab45774f71b0bc07c2cd5c655,PictureAccept,97,1,exp1-1,23,Pick a picture,1,0,2175,
1513596285,49de413ab45774f71b0bc07c2cd5c655,DashedSentence,226,0,f,98,1,The boy dropped the coffee cup in the room after reading the book.,4473,FALSE,The boy dropped the coffee cup in the room after reading the book.
1513596285,49de413ab45774f71b0bc07c2cd5c655,PictureAccept,226,1,f,98,Pick a picture,1,1,2538,
1513596285,49de413ab45774f71b0bc07c2cd5c655,DashedSentence,91,0,exp1-3,21,1,After the old lady dressed the boy in the bedroom checked the time.,13242,FALSE,After the old lady dressed the boy in the bedroom checked the time.
1513596285,49de413ab45774f71b0bc07c2cd5c655,PictureAccept,91,1,exp1-3,21,Pick a picture,2,1,1764,
1513596285,49de413ab45774f71b0bc07c2cd5c655,DashedSentence,214,0,f,86,1,The boy watched the movie while the old lady got dressed.,6685,FALSE,The boy watched the movie while the old lady got dressed.
1513596285,49de413ab45774f71b0bc07c2cd5c655,PictureAccept,214,1,f,86,Pick a picture,1,1,4250,
1513596285,49de413ab45774f71b0bc07c2cd5c655,DashedSentence,11,0,exp1-3,1,1,After the lady woke up the child in the room ate a sandwich.,3853,FALSE,After the lady woke up the child in the room ate a sandwich.
1513596285,49de413ab45774f71b0bc07c2cd5c655,PictureAccept,11,1,exp1-3,1,Pick a picture,1,1,5591,
1513596285,49de413ab45774f71b0bc07c2cd5c655,DashedSentence,190,0,f,62,1,The visitor saw the shark which was swimming very quickly in the aquarium.,3367,FALSE,The visitor saw the shark which was swimming very quickly in the aquarium.
1513596285,49de413ab45774f71b0bc07c2cd5c655,PictureAccept,190,1,f,62,Pick a picture,2,1,2615,
1513596285,49de413ab45774f71b0bc07c2cd5c655,DashedSentence,178,0,exp3-2,52,1,Jack found the bicycle beside which the mechanic repaired the car during the morning.,-38637,FALSE,Jack found the bicycle beside which the mechanic repaired the car during the morning.
1513596285,49de413ab45774f71b0bc07c2cd5c655,PictureAccept,178,1,exp3-2,52,Pick a picture,1,1,3079,
1513596285,49de413ab45774f71b0bc07c2cd5c655,DashedSentence,211,0,f,83,1,The woman who had an umbrella saw the policeman with the pistol.,3828,FALSE,The woman who had an umbrella saw the policeman with the pistol.
1513596285,49de413ab45774f71b0bc07c2cd5c655,PictureAccept,211,1,f,83,Pick a picture,1,1,1776,
1513596285,49de413ab45774f71b0bc07c2cd5c655,DashedSentence,167,0,exp3-1,47,1,Anna looked at the table which the man carried the chair near quite hastily.,6359,FALSE,Anna looked at the table which the man carried the chair near quite hastily.
1513596285,49de413ab45774f71b0bc07c2cd5c655,PictureAccept,167,1,exp3-1,47,Pick a picture,2,1,1424,
1513596285,49de413ab45774f71b0bc07c2cd5c655,DashedSentence,230,0,f,102,1,The woman washed her hair very quickly while Edward had a nap.,5685,FALSE,The woman washed her hair very quickly while Edward had a nap.
1513596285,49de413ab45774f71b0bc07c2cd5c655,PictureAccept,230,1,f,102,Pick a picture,1,1,5934,
1513596285,49de413ab45774f71b0bc07c2cd5c655,DashedSentence,33,0,exp1-1,7,1,After the mouse scratched the researcher in the university drank some water.,7290,FALSE,After the mouse scratched the researcher in the university drank some water.
1513596285,49de413ab45774f71b0bc07c2cd5c655,PictureAccept,33,1,exp1-1,7,Pick a picture,1,1,11994,
1513596285,49de413ab45774f71b0bc07c2cd5c655,DashedSentence,228,0,f,100,1,The mouse followed the cat which was walking on the road.,3013,FALSE,The mouse followed the cat which was walking on the road.
1513596285,49de413ab45774f71b0bc07c2cd5c655,PictureAccept,228,1,f,100,Pick a picture,1,1,2520,
1513596285,49de413ab45774f71b0bc07c2cd5c655,DashedSentence,81,0,exp1-1,19,1,After the lady woke up her boyfriend in the flat drank a cup of tea.,3874,FALSE,After the lady woke up her boyfriend in the flat drank a cup of tea.
1513596285,49de413ab45774f71b0bc07c2cd5c655,PictureAccept,81,1,exp1-1,19,Pick a picture,2,1,1979,
1513596285,49de413ab45774f71b0bc07c2cd5c655,DashedSentence,189,0,f,61,1,The boy kicked the ball which was near the tree in the park.,4741,FALSE,The boy kicked the ball which was near the tree in the park.
1513596285,49de413ab45774f71b0bc07c2cd5c655,PictureAccept,189,1,f,61,Pick a picture,2,1,1830,
1513596285,49de413ab45774f71b0bc07c2cd5c655,DashedSentence,102,0,exp1-2,24,1,After the parents kissed%2C their daughter in the hospital sat down on the sofa.,9302,FALSE,After the parents kissed%2C their daughter in the hospital sat down on the sofa.
1513596285,49de413ab45774f71b0bc07c2cd5c655,PictureAccept,102,1,exp1-2,24,Pick a picture,2,1,1931,
1513596285,49de413ab45774f71b0bc07c2cd5c655,DashedSentence,210,0,f,82,1,The lady who wore a necklace hit the man with the glasses suddenly.,6549,FALSE,The lady who wore a necklace hit the man with the glasses suddenly.
1513596285,49de413ab45774f71b0bc07c2cd5c655,PictureAccept,210,1,f,82,Pick a picture,1,1,2318,
1513596285,49de413ab45774f71b0bc07c2cd5c655,DashedSentence,70,0,exp1-2,16,1,After the two girls hugged%2C their father at the station drank some lemonade.,3987,FALSE,After the two girls hugged%2C their father at the station drank some lemonade.
1513596285,49de413ab45774f71b0bc07c2cd5c655,PictureAccept,70,1,exp1-2,16,Pick a picture,2,1,1681,
1513596285,49de413ab45774f71b0bc07c2cd5c655,DashedSentence,232,0,f,104,1,The trendy student who took the exam noticed that the old teacher had a cellphone.,5356,FALSE,The trendy student who took the exam noticed that the old teacher had a cellphone.
1513596285,49de413ab45774f71b0bc07c2cd5c655,PictureAccept,232,1,f,104,Pick a picture,1,1,2538,
1513596285,49de413ab45774f71b0bc07c2cd5c655,DashedSentence,170,0,exp3-2,48,1,Katie saw the window which the boy broke the toy beside during the weekend.,7666,FALSE,Katie saw the window which the boy broke the toy beside during the weekend.
1513596285,49de413ab45774f71b0bc07c2cd5c655,PictureAccept,170,1,exp3-2,48,Pick a picture,1,0,3947,
